#t[ns],wx,wy,wz,ax,ay,az
43443398582999,-3.11589821,-0.769120856,-3.13294244,-5.60003768,-1.01753571,0.256179578
43443399571236,-3.13081191,-0.749946096,-3.10204977,-5.55215365,-1.13245739,0.316034619
43443400559473,-3.14466035,-0.730771337,-3.0711571,-5.50666382,-1.23780226,0.354341846
43443401548693,-3.15744352,-0.712661841,-3.04026443,-5.4755392,-1.34793553,0.354341846
43443402536930,-3.16916143,-0.694552412,-3.00724124,-5.46596239,-1.46525142,0.430956299
43443403525167,-3.1819446,-0.678573446,-2.97421804,-5.45159718,-1.57777889,0.507570752
43443404513405,-3.19366251,-0.663659744,-2.93906431,-5.41089575,-1.70706578,0.497993945
43443405501642,-3.20538042,-0.647680777,-2.90391059,-5.40610735,-1.86747729,0.51954176
43443406489879,-3.21603307,-0.632767075,-2.87088739,-5.42047256,-2.04464822,0.574608398
43443407479099,-3.22775097,-0.617853373,-2.83786419,-5.39413634,-2.20266553,0.588973608
43443408467336,-3.24053415,-0.602939671,-2.80377573,-5.3318871,-2.3056162,0.572214197
43443409455573,-3.25331732,-0.588025969,-2.76968753,-5.32709869,-2.37983645,0.550666382
43443410443810,-3.2629047,-0.573112267,-2.73453381,-5.31273348,-2.48996973,0.54827218
43443411432048,-3.27355735,-0.558198531,-2.70151061,-5.26724365,-2.62404502,0.608127222
43443412420285,-3.28314473,-0.545415358,-2.66635688,-5.20499441,-2.72938989,0.615309827
43443413409505,-3.29166684,-0.532632185,-2.63120316,-5.12598575,-2.79882174,0.536301172
43443414397742,-3.29912369,-0.515587954,-2.59285364,-5.11640895,-2.8826188,0.488417139
43443415385979,-3.30658054,-0.497478458,-2.55343885,-5.08767853,-3.0286651,0.481234534
43443416374216,-3.31297213,-0.481499492,-2.51508933,-5.06852491,-3.19865342,0.423773694
43443417362454,-3.31936372,-0.467651054,-2.47780508,-5.09007273,-3.34709392,0.390254871
43443418351673,-3.32362477,-0.452737352,-2.44265135,-5.10683214,-3.4596214,0.361524451
43443419339910,-3.32682057,-0.436758385,-2.4053671,-5.14992777,-3.57454308,0.332794031
43443420328148,-3.33108163,-0.420779419,-2.36808284,-5.14513937,-3.70382997,0.320823022
43443421316385,-3.33427742,-0.403735188,-2.33186385,-5.10204374,-3.78044442,0.265756384
43443422304622,-3.33321215,-0.387756221,-2.29564486,-5.11401475,-3.85227047,0.210689746
43443423292859,-3.33321215,-0.372842519,-2.25942587,-5.15471617,-3.95761534,0.181959326
43443424282079,-3.33321215,-0.356863553,-2.22320674,-5.17386979,-4.04859501,0.1436521
43443425270316,-3.33108163,-0.339819355,-2.18805302,-5.14992777,-4.00549938,0.0981622681
43443426258554,-3.3289511,-0.32170986,-2.15396456,-5.11640895,-3.93127913,0.00957680664
43443427246791,-3.32362477,-0.304665629,-2.11774557,-5.15950458,-4.00549938,0.00478840332
43443428235028,-3.31723319,-0.288686662,-2.08046131,-5.25287844,-4.16591089,0.112527478
43443429223265,-3.30871107,-0.271642415,-2.04424232,-5.37019432,-4.31674559,0.160411511
43443430212485,-3.30231949,-0.255663448,-2.01228439,-5.46596239,-4.4699745,0.107739075
43443431200722,-3.29805843,-0.239684481,-1.98245698,-5.45399138,-4.55616576,0.0359130249
43443432188959,-3.29486263,-0.224770779,-1.95262958,-5.50187542,-4.65672223,0.0167594116
43443433177197,-3.28953631,-0.210922342,-1.92386744,-5.59285508,-4.77164391,-0.0263362183
43443434165434,-3.28314473,-0.19600864,-1.89830109,-5.69580575,-4.86022937,-0.119710083
43443435153671,-3.27462261,-0.182160202,-1.87380001,-5.7676318,-4.97993945,-0.208295544
43443436142891,-3.26396997,-0.169377045,-1.84929893,-5.7652376,-5.06134231,-0.239420166
43443437131128,-3.25118679,-0.159789665,-1.82586311,-5.76044919,-5.15711038,-0.294486804
43443438119365,-3.23733835,-0.149137021,-1.80136203,-5.74368978,-5.30315668,-0.366312854
43443439107602,-3.22242465,-0.138484368,-1.77792621,-5.81551583,-5.44920298,-0.486022937
43443440095840,-3.20964148,-0.127831724,-1.75449039,-5.81791003,-5.56173046,-0.588973608
43443441084077,-3.19366251,-0.116113815,-1.73211984,-5.77960281,-5.70777676,-0.612915625
43443442073297,-3.17555302,-0.104395906,-1.71081455,-5.73650718,-5.78439121,-0.567425793
43443443061534,-3.15850879,-0.0916127332,-1.688444,-5.66707533,-5.81791003,-0.545877979
43443444049771,-3.14252982,-0.0766990394,-1.66607344,-5.6191913,-5.9064955,-0.579396802
43443445038008,-3.12442032,-0.0649811264,-1.64263763,-5.59764348,-6.00465776,-0.600944617
43443446026246,-3.10737609,-0.0521979532,-1.61707128,-5.6263739,-6.13633885,-0.545877979
43443447014483,-3.09139713,-0.0404800486,-1.5925702,-5.67425793,-6.32308658,-0.495599744
43443448003702,-3.07541816,-0.0276968733,-1.56913438,-5.69580575,-6.46913289,-0.50517655
43443448991940,-3.06050446,-0.0138484366,-1.54569856,-5.65989272,-6.55053574,-0.572214197
43443449980177,-3.04559076,-0.00319579305,-1.52119748,-5.53300004,-6.52419952,-0.718260498
43443450968414,-3.02854653,0.00852211497,-1.4966964,-5.46117399,-6.50983431,-0.830787976
43443451956651,-3.0083065,0.0202400243,-1.46899952,-5.4755392,-6.67503423,-0.821211169
43443452944889,-2.98806648,0.0330231954,-1.43810686,-5.47075079,-6.80910952,-0.715866296
43443453934108,-2.96889172,0.0447411022,-1.40614892,-5.41807836,-6.80910952,-0.553060583
43443454922346,-2.95291275,0.0553937465,-1.37738692,-5.41807836,-6.84981095,-0.538695374
43443455910583,-2.93693378,0.0671116553,-1.3507553,-5.44202037,-6.98388624,-0.567425793
43443456898820,-2.92202008,0.0777643038,-1.32305843,-5.44202037,-7.09401952,-0.49081134
43443457887057,-2.90604112,0.0862864193,-1.29536155,-5.51863483,-7.18499918,-0.488417139
43443458875295,-2.89006215,0.093743262,-1.26872994,-5.49469281,-7.23767162,-0.502782349
43443459864514,-2.87514845,0.102265378,-1.24103307,-5.4803276,-7.32865128,-0.50517655
43443460852751,-2.85916948,0.108656964,-1.21227093,-5.53539424,-7.47469758,-0.497993945
43443461840989,-2.84212525,0.113983286,-1.18563932,-5.58567247,-7.59919607,-0.541089575
43443462829226,-2.82401575,0.120374873,-1.16007297,-5.60243188,-7.66623372,-0.574608398
43443463817463,-2.80910205,0.12676646,-1.13557189,-5.59285508,-7.71651195,-0.565031592
43443464805700,-2.79525388,0.132092782,-1.11107074,-5.58327827,-7.76918439,-0.565031592
43443465794920,-2.78034018,0.137419104,-1.08763492,-5.59764348,-7.80509741,-0.60573302
43443466783157,-2.76649174,0.142745434,-1.06419911,-5.60961449,-7.83861624,-0.656011255
43443467771395,-2.74944751,0.149137021,-1.04076329,-5.64073911,-7.87931766,-0.699106885
43443468759632,-2.73240328,0.154463343,-1.01839273,-5.70777676,-7.94635531,-0.656011255
43443469747869,-2.71535905,0.156593872,-0.996022181,-5.72214197,-7.95114371,-0.596156213
43443470736106,-2.69831482,0.156593872,-0.972586364,-5.71735356,-7.91523069,-0.617704028
43443471725326,-2.67914006,0.156593872,-0.948085281,-5.69819995,-7.9367785,-0.572214197
43443472713563,-2.65890003,0.156593872,-0.924649464,-5.69580575,-7.99902775,-0.543483777
43443473701800,-2.63866001,0.154463343,-0.902278911,-5.69101735,-7.96311472,-0.574608398
43443474690038,-2.61628945,0.153398079,-0.879908358,-5.67904634,-7.91523069,-0.629675037
43443475678275,-2.59498417,0.152332814,-0.857537804,-5.66468113,-7.87931766,-0.639251843
43443476666512,-2.57367888,0.152332814,-0.833036722,-5.67904634,-7.80030901,-0.588973608
43443477655732,-2.55024306,0.15126755,-0.807470376,-5.74129558,-7.73087716,-0.536301172
43443478643969,-2.52574198,0.147006492,-0.781904029,-5.78678541,-7.70454094,-0.418985291
43443479632206,-2.5012409,0.139549633,-0.757402947,-5.83945785,-7.69735834,-0.318428821
43443480620444,-2.47673981,0.133158046,-0.732901865,-5.89213029,-7.65186851,-0.258573779
43443481608681,-2.45223873,0.125701195,-0.708400783,-5.9184665,-7.58483086,-0.193930334
43443482596918,-2.42773765,0.116113815,-0.683899768,-5.95198533,-7.57046565,-0.201112939
43443483586138,-2.40323657,0.106526435,-0.659398686,-5.93283171,-7.56088884,-0.196324536
43443484574375,-2.37980075,0.0958737909,-0.634897604,-5.94719692,-7.56328304,-0.148440503
43443485562612,-2.35636493,0.0852211549,-0.611461786,-6.00705197,-7.60877288,-0.107739075
43443486550849,-2.33399438,0.0735032461,-0.589091233,-6.03099398,-7.60159027,-0.0359130249
43443487539087,-2.31162383,0.0617853331,-0.567785944,-6.03338818,-7.58004246,-0.0119710083
43443488527324,-2.29031854,0.0500674243,-0.547545887,-6.07887802,-7.57525405,-0.0167594116
43443489516543,-2.26688272,0.0383495197,-0.527305863,-6.16267507,-7.62313809,0.0215478149
43443490504781,-2.2434469,0.0255663444,-0.506000574,-6.2033765,-7.63271489,0.0646434448
43443491493018,-2.21894569,0.0106526444,-0.487891078,-6.23450112,-7.58243666,0.0670376465
43443492481255,-2.19657513,-0.00319579305,-0.469781583,-6.24886633,-7.58483086,0.0718260498
43443493469492,-2.17420458,-0.0181094954,-0.449541559,-6.29196196,-7.63271489,0.0574608398
43443494457730,-2.1497035,-0.0330231954,-0.430366799,-6.33266339,-7.6494743,0.00957680664
43443495446949,-2.12520242,-0.0500674243,-0.411192039,-6.32069238,-7.58004246,-0.0814028564
43443496435187,-2.09963607,-0.0660463909,-0.392017279,-6.26801995,-7.46512078,-0.220266553
43443497423424,-2.07193919,-0.0788295683,-0.37071199,-6.25126053,-7.42681355,-0.287304199
43443498411661,-2.04317706,-0.0894822043,-0.347276206,-6.28717356,-7.47948599,-0.232237561
43443499399898,-2.01228439,-0.102265378,-0.323840389,-6.351817,-7.51300481,-0.112527478
43443500388136,-1.98352225,-0.116113815,-0.3025351,-6.38294163,-7.51061061,-0.0287304199
43443501377355,-1.95689064,-0.133158046,-0.282295076,-6.38054742,-7.52258162,-0.0167594116
43443502365592,-1.93345482,-0.149137021,-0.262055035,-6.38294163,-7.54412943,-0.0239420166
43443503353830,-1.90895374,-0.166181252,-0.240749746,-6.36618221,-7.57525405,-0.0215478149
43443504342067,-1.88445265,-0.184290731,-0.219444457,-6.32308658,-7.60637867,-0.0191536133
43443505330304,-1.85888631,-0.202400226,-0.198139168,-6.27280835,-7.60398447,-0.0119710083
43443506318541,-1.83438523,-0.219444457,-0.175768615,-6.24407793,-7.60159027,-0.0598550415
43443507307761,-1.81094941,-0.234358159,-0.153398079,-6.1985881,-7.61116708,-0.110133276
43443508295998,-1.78751359,-0.248206597,-0.132092782,-6.15788667,-7.62792649,-0.102950671
43443509284236,-1.76301251,-0.258859241,-0.109722229,-6.15788667,-7.6446859,-0.153228906
43443510272473,-1.73851143,-0.27057715,-0.0884169399,-6.15788667,-7.67820472,-0.244208569
43443511260710,-1.71507561,-0.284425604,-0.0671116553,-6.12436785,-7.70454094,-0.311246216
43443512248947,-1.69163979,-0.295078249,-0.046871631,-6.09803163,-7.72848296,-0.371101257
43443513238167,-1.66926924,-0.305730893,-0.0266316088,-6.09563743,-7.76918439,-0.426167896
43443514226404,-1.64476816,-0.315318273,-0.0063915861,-6.08606062,-7.79791481,-0.509964954
43443515214641,-1.61920181,-0.323840389,0.0138484366,-6.07648381,-7.82903943,-0.596156213
43443516202879,-1.59470073,-0.333427768,0.0330231954,-6.07408961,-7.87213506,-0.658405457
43443517191116,-1.56806912,-0.341949884,0.0521979532,-6.03338818,-7.89368287,-0.77811554
43443518180336,-1.54356803,-0.349406735,0.0713727172,-6.01662877,-7.89128867,-0.873883606
43443519168573,-1.51800169,-0.356863553,0.0894822043,-6.00944617,-7.86734666,-0.924161841
43443520156810,-1.49137008,-0.362189875,0.1075917,-5.94719692,-7.83622203,-1.02471831
43443521145047,-1.46473847,-0.366450933,0.12676646,-5.89931289,-7.86255825,-1.11330377
43443522133285,-1.44023738,-0.368581462,0.145941228,-5.9160723,-7.90804808,-1.16118781
43443523121522,-1.41467104,-0.37071199,0.165115988,-5.89691869,-7.92241329,-1.23780226
43443524110741,-1.39123535,-0.371777255,0.184290731,-5.85861146,-7.91523069,-1.33596453
43443525098979,-1.36673427,-0.371777255,0.202400226,-5.80593903,-7.88650027,-1.40060797
43443526087216,-1.34223319,-0.371777255,0.218379193,-5.7724202,-7.86734666,-1.4389152
43443527075453,-1.31879737,-0.37071199,0.235423424,-5.75326659,-7.87931766,-1.53228906
43443528063690,-1.29429629,-0.368581462,0.252467655,-5.71735356,-7.86495245,-1.61608612
43443529051928,-1.26979521,-0.366450933,0.268446621,-5.68144054,-7.85537565,-1.67115276
43443530041147,-1.24529413,-0.362189875,0.285490869,-5.66468113,-7.86255825,-1.78128604
43443531029385,-1.22398884,-0.356863553,0.3025351,-5.63355651,-7.83861624,-1.84592948
43443532017622,-1.20268355,-0.350471966,0.318514066,-5.53778844,-7.80509741,-1.89381351
43443533005859,-1.180313,-0.341949884,0.334493033,-5.50426962,-7.7835496,-1.98718738
43443533994096,-1.16007297,-0.333427768,0.351537231,-5.4755392,-7.71172355,-1.99915839
43443534982334,-1.13876768,-0.325970917,0.369646726,-5.43483777,-7.63032069,-2.05661923
43443535971553,-1.11746239,-0.316383538,0.386690957,-5.41568416,-7.59919607,-2.19069452
43443536959790,-1.0972223,-0.303600364,0.404800452,-5.38695374,-7.59919607,-2.27688578
43443537948028,-1.07804754,-0.289751927,0.422909948,-5.36301172,-7.56328304,-2.36068284
43443538936265,-1.05780752,-0.275903472,0.439954179,-5.3318871,-7.51300481,-2.47560452
43443539924502,-1.03756749,-0.26098977,0.45699841,-5.29357987,-7.46990918,-2.60728561
43443540912739,-1.01626221,-0.248206597,0.47617317,-5.27682046,-7.43399615,-2.66474645
43443541901959,-0.996022181,-0.234358159,0.495347929,-5.27442626,-7.41244834,-2.70544788
43443542890196,-0.974716892,-0.219444457,0.514522689,-5.25287844,-7.3549875,-2.76290872
43443543878433,-0.953411604,-0.202400226,0.535827978,-5.21696542,-7.30949767,-2.80600435
43443544866671,-0.932106315,-0.18642126,0.555002738,-5.17865819,-7.28555565,-2.8778304
43443545854908,-0.911866291,-0.17044231,0.57630806,-5.13795676,-7.25921943,-2.93289703
43443546843145,-0.890561002,-0.154463343,0.598678613,-5.08289012,-7.19457599,-2.90416661
43443547832365,-0.869255713,-0.138484368,0.619983902,-5.0541597,-7.13950935,-2.90656082
43443548820602,-0.850080953,-0.118244344,0.64128919,-5.0469771,-7.12035574,-2.96162745
43443549808839,-0.830906194,-0.0990695842,0.663659744,-5.02782349,-7.09162532,-3.00472308
43443550797077,-0.812796698,-0.0798948327,0.684965032,-5.02782349,-7.08683691,-3.09091434
43443551785314,-0.793621938,-0.0607200687,0.70520499,-5.00148727,-7.09641372,-3.1675288
43443552773551,-0.77231665,-0.0404800486,0.727575543,-4.99430466,-7.0628949,-3.22259543
43443553762771,-0.752076625,-0.0202400243,0.749946096,-5.02064088,-7.04613549,-3.28245048
43443554751008,-0.732901865,0.00106526437,0.771251385,-5.01585248,-7.03655868,-3.3111809
43443555739245,-0.715857634,0.0213052887,0.793621938,-5.00388147,-7.01979927,-3.30878669
43443556727482,-0.696682941,0.0426105774,0.812796698,-4.97993945,-7.01261666,-3.30639249
43443557715720,-0.676442917,0.063915862,0.830906194,-4.95599744,-6.98867465,-3.30399829
43443558703957,-0.655137628,0.0841558904,0.850080953,-4.91290181,-6.94318481,-3.3183635
43443559693177,-0.635962868,0.105461171,0.870320978,-4.85783517,-6.9168486,-3.32554611
43443560681414,-0.616788108,0.127831724,0.892691531,-4.82192214,-6.90248339,-3.3111809
43443561669651,-0.597613349,0.15126755,0.912931555,-4.78361492,-6.88093557,-3.29681569
43443562657888,-0.579503853,0.172572839,0.933171579,-4.73573088,-6.84981095,-3.27047947
43443563646126,-0.560329093,0.193878111,0.952346339,-4.70939467,-6.82108053,-3.24414325
43443564634363,-0.5411543,0.214118135,0.974716892,-4.69263525,-6.79713851,-3.26808527
43443565623582,-0.52197954,0.234358159,0.996022181,-4.65193383,-6.7755907,-3.30878669
43443566611820,-0.502804781,0.256728712,1.01732747,-4.59686719,-6.75164868,-3.28484468
43443567600057,-0.48576055,0.280164547,1.03969802,-4.54180055,-6.67742843,-3.24653745
43443568588294,-0.468716319,0.301469835,1.06100331,-4.49152231,-6.59123717,-3.23696064
43443569576531,-0.452737352,0.322775124,1.08337386,-4.44603248,-6.54095894,-3.22259543
43443570564769,-0.436758385,0.344080413,1.10680968,-4.40293685,-6.47870969,-3.19147081
43443571553988,-0.419714155,0.366450933,1.12811504,-4.34308181,-6.38773003,-3.1747114
43443572542226,-0.402669924,0.387756221,1.15048559,-4.30716879,-6.31590398,-3.15795199
43443573530463,-0.386690957,0.410126775,1.17392141,-4.27364996,-6.27999095,-3.10767375
43443574518700,-0.371777255,0.431432063,1.19842249,-4.23055433,-6.19379969,-3.06697233
43443575506937,-0.356863553,0.453802616,1.22398884,-4.15393988,-6.11718524,-3.06697233
43443576495175,-0.343015148,0.47617317,1.24848992,-4.10366165,-6.10521423,-3.05739552
43443577484394,-0.329166711,0.498543723,1.27086047,-4.09408484,-6.03099398,-3.04542451
43443578472631,-0.315318273,0.520914276,1.29536155,-4.07014282,-5.94001432,-3.10527955
43443579460869,-0.301469835,0.5411543,1.3209279,-4.06296022,-5.90410129,-3.13400997
43443580449106,-0.287621398,0.561394358,1.34542898,-4.0414124,-5.84664045,-3.09330854
43443581437343,-0.273772943,0.581634382,1.36993006,-3.99113417,-5.76044919,-3.09330854
43443582425580,-0.263120299,0.602939671,1.39443115,-3.94803854,-5.69101735,-3.11246216
43443583414800,-0.250337126,0.623179695,1.4189321,-3.92888492,-5.6239797,-3.09570275
43443584403037,-0.237553953,0.643419719,1.44343318,-3.93367333,-5.58088407,-3.04542451
43443585391275,-0.224770779,0.663659744,1.46899952,-3.92170232,-5.52821163,-2.99514628
43443586379512,-0.213052871,0.686030297,1.49350061,-3.86902988,-5.45399138,-2.96162745
43443587367749,-0.203465491,0.706270255,1.51906695,-3.83551106,-5.40131895,-2.92332023
43443588355986,-0.194943375,0.726510279,1.54143751,-3.80917484,-5.29597407,-2.89458981
43443589345206,-0.185355995,0.746750303,1.56487332,-3.76368501,-5.188235,-2.885013
43443590333443,-0.175768615,0.766990327,1.58724388,-3.74213719,-5.15232197,-2.84909998
43443591321680,-0.168311781,0.787230352,1.60961443,-3.73016619,-5.09964954,-2.83712897
43443592309918,-0.161920194,0.807470376,1.63411551,-3.69185896,-5.01345828,-2.84670577
43443593298155,-0.153398079,0.8277104,1.65755133,-3.63200392,-4.94881483,-2.82276376
43443594286392,-0.145941228,0.847950425,1.67992188,-3.5984851,-4.88895979,-2.80839855
43443595275612,-0.140614906,0.867125184,1.70229244,-3.56736047,-4.82671055,-2.81318695
43443596263849,-0.134223311,0.887365209,1.72572825,-3.53384165,-4.77643231,-2.84431157
43443597252086,-0.129962253,0.907605233,1.74703354,-3.52905325,-4.70700046,-2.85628258
43443598240324,-0.124635931,0.928910522,1.7694041,-3.49314022,-4.67827004,-2.85149418
43443599228561,-0.118244344,0.949150546,1.79283991,-3.44525619,-4.64953962,-2.87543619
43443600216798,-0.110787493,0.96939057,1.81627573,-3.41652577,-4.58489618,-2.90416661
43443601206018,-0.104395906,0.989630594,1.83758102,-3.38300695,-4.52264694,-2.95444485
43443602194255,-0.0990695842,1.00987062,1.85888631,-3.3207577,-4.49391652,-3.01190569
43443603182492,-0.093743262,1.03011064,1.88125686,-3.29681569,-4.43645568,-3.05739552
43443604170729,-0.0873516838,1.05035067,1.90362741,-3.29202728,-4.37181223,-3.12922157
43443605158967,-0.0820253616,1.07165596,1.92706323,-3.25850846,-4.35984122,-3.22738384
43443606148186,-0.0777643038,1.09083072,1.94943378,-3.22498964,-4.321534,-3.29681569
43443607136423,-0.0724379817,1.112136,1.97073907,-3.21541283,-4.24252534,-3.36385333
43443608124661,-0.0671116553,1.13557189,1.99310963,-3.21780703,-4.1826703,-3.4596214
43443609112898,-0.0596548043,1.15794244,2.01548018,-3.19865342,-4.17309349,-3.54820686
43443610101135,-0.0532632176,1.17924773,2.0357202,-3.1723172,-4.13478627,-3.64158073
43443611089372,-0.0458063666,1.20161828,2.05702549,-3.13400997,-4.08929644,-3.73495459
43443612078592,-0.0394147841,1.2250541,2.07939605,-3.11964476,-4.0342298,-3.82114585
43443613066829,-0.0330231954,1.25168571,2.1017666,-3.14119258,-3.99831677,-3.90733711
43443614055067,-0.0255663444,1.27831732,2.12200662,-3.11725056,-4.00071097,-4.00310518
43443615043304,-0.0170442299,1.30388367,2.14224665,-3.09330854,-3.96958635,-4.10845005
43443616031541,-0.00745685053,1.33051528,2.16355194,-3.09091434,-3.90494291,-4.22097753
43443617019778,0.00106526437,1.35821216,2.18379196,-3.10049115,-3.85227047,-4.34068761
43443618008998,0.0106526444,1.3869743,2.20403198,-3.09330854,-3.82114585,-4.42209047
43443618997235,0.0202400243,1.41680157,2.22320674,-3.09570275,-3.76368501,-4.50109912
43443619985472,0.0287621377,1.44769424,2.24557743,-3.11725056,-3.70861837,-4.58489618
43443620973710,0.0362189908,1.4785869,2.26688272,-3.10527955,-3.64876333,-4.68784685
43443621961947,0.0436758419,1.50734904,2.28818801,-3.11246216,-3.57454308,-4.80037433
43443622950184,0.0511326888,1.53824171,2.3094933,-3.14598098,-3.50989963,-4.9009308
43443623939404,0.0596548043,1.57126491,2.33079859,-3.1794998,-3.42370837,-5.00388147
43443624927641,0.0692421842,1.60535337,2.35103861,-3.20104762,-3.35906493,-5.11640895
43443625915878,0.0777643038,1.63837657,2.3723439,-3.23217224,-3.29681569,-5.23133063
43443626904116,0.0862864193,1.6703345,2.39471445,-3.28484468,-3.19386501,-5.3390697
43443627892353,0.0948085265,1.70442296,2.41601974,-3.3183635,-3.11006796,-5.44680878
43443628880590,0.104395906,1.73957669,2.43732503,-3.34469972,-3.04781871,-5.55694205
43443629869810,0.113983286,1.77579568,2.45863032,-3.41173737,-2.99035787,-5.66707533
43443630858047,0.123570666,1.81307994,2.48206614,-3.45243879,-2.95205065,-5.7676318
43443631846284,0.134223311,1.84929893,2.50443669,-3.50032283,-2.91374342,-5.86579407
43443632834521,0.144875963,1.88658318,2.52787251,-3.54581266,-2.83952317,-5.96635054
43443633822759,0.154463343,1.92280217,2.55130832,-3.57454308,-2.77009132,-6.06451281
43443634810996,0.165115988,1.96008643,2.57154835,-3.62003291,-2.72938989,-6.14591566
43443635800216,0.17683388,1.99843595,2.5939189,-3.67988795,-2.66474645,-6.2081649
43443636788453,0.18642126,2.03678547,2.61735472,-3.7565024,-2.5929204,-6.26562574
43443637776690,0.197073904,2.07406972,2.63866001,-3.80199224,-2.55940157,-6.33745179
43443638764927,0.208791813,2.11135398,2.6599653,-3.84987627,-2.52348855,-6.39970104
43443639753165,0.218379193,2.14757297,2.68233585,-3.91930812,-2.46842191,-6.45716188
43443640741402,0.227966573,2.18698775,2.7047064,-3.97437476,-2.41574948,-6.50983431
43443641730621,0.238619217,2.22427201,2.72707696,-4.02465299,-2.35110603,-6.58405457
43443642718859,0.248206597,2.26262166,2.74731698,-4.07253702,-2.28885679,-6.64630381
43443643707096,0.258859241,2.30097118,2.76862227,-4.11084425,-2.21942494,-6.67024583
43443644695333,0.27057715,2.34038597,2.79099282,-4.15154568,-2.1619641,-6.68939944
43443645683570,0.282295076,2.37980075,2.81336311,-4.19942971,-2.12605107,-6.71334146
43443646671808,0.290817191,2.41708501,2.8346684,-4.24491954,-2.09253225,-6.75883129
43443647661027,0.300404571,2.453304,2.85703895,-4.26407316,-2.04225402,-6.80671532
43443648649265,0.311057215,2.49058825,2.87834424,-4.29280358,-1.99197578,-6.82826313
43443649637502,0.320644595,2.52787251,2.897519,-4.3287166,-1.97521637,-6.81629213
43443650625739,0.332362504,2.56622203,2.91775902,-4.34308181,-1.93451494,-6.81629213
43443651613976,0.343015148,2.60350628,2.93799905,-4.37420643,-1.89381351,-6.82586893
43443652602214,0.354733024,2.63972527,2.95930434,-4.39096584,-1.88902511,-6.82347473
43443653591433,0.366450933,2.67594426,2.98060963,-4.38857164,-1.88423671,-6.81150372
43443654579670,0.378168842,2.71109799,2.99978439,-4.40533105,-1.88663091,-6.79713851
43443655567908,0.392017279,2.74625172,3.01789388,-4.42448467,-1.90339032,-6.78756171
43443656556145,0.404800452,2.78140544,3.03706864,-4.45560929,-1.92014973,-6.79235011
43443657544382,0.416518361,2.8165589,3.05411287,-4.46279189,-1.95366855,-6.77080229
43443658532619,0.429301534,2.85064736,3.07009184,-4.4675803,-1.98718738,-6.73010087
43443659521839,0.443149972,2.8826053,3.08500554,-4.52025273,-2.0135236,-6.70615885
43443660510076,0.458063674,2.91349797,3.09991924,-4.55137736,-2.06380183,-6.69897625
43443661498313,0.471912112,2.9454559,3.11376768,-4.57531937,-2.09253225,-6.71812986
43443662486551,0.48576055,2.97741383,3.12655085,-4.6112324,-2.08774385,-6.74207187
43443663474788,0.498543723,3.00937177,3.1372035,-4.60165559,-2.08295544,-6.79235011
43443664463025,0.51239216,3.04026443,3.14892141,-4.6208092,-2.09253225,-6.84023414
43443665452245,0.525175334,3.0711571,3.16063932,-4.69502946,-2.09013805,-6.87135876
43443666440482,0.537958507,3.1041803,3.16916143,-4.74051929,-2.09492645,-6.9168486
43443667428719,0.55074168,3.13613823,3.17768355,-4.76924971,-2.09013805,-6.9288196
43443668416957,0.564590151,3.16916143,3.1851404,-4.79558593,-2.03985981,-6.94318481
43443669405194,0.578438589,3.20218463,3.19472778,-4.81713374,-2.018312,-6.96712683
43443670393431,0.591221762,3.23414256,3.20324989,-4.83149895,-1.99436998,-6.96952103
43443671382651,0.602939671,3.26610049,3.21177201,-4.85065256,-1.91536133,-6.99106885
43443672370888,0.612527051,3.29805843,3.21922886,-4.91529601,-1.86508309,-6.95994423
43443673359125,0.623179695,3.33001636,3.22562045,-4.99669886,-1.82198746,-6.9168486
43443674347362,0.633832339,3.36197429,3.2330773,-5.08289012,-1.77410343,-6.93121381
43443675335600,0.643419719,3.3918017,3.23946888,-5.14035096,-1.78128604,-6.90727179
43443676323837,0.654072364,3.41949857,3.24479521,-5.12837996,-1.67354696,-6.97670364
43443677313057,0.666855537,3.44932598,3.25012153,-5.14274517,-1.53707747,-7.08444271
43443678301294,0.67963871,3.48128391,3.25331732,-5.20260021,-1.46525142,-7.0628949
43443679289531,0.692421883,3.51111131,3.25651311,-5.26963785,-1.40539637,-6.96952103
43443680277768,0.704139726,3.53774293,3.25864364,-5.26484945,-1.3024457,-6.85699355
43443681266006,0.719053428,3.56330927,3.2629047,-5.21696542,-0.988805286,-6.97430944
43443682254243,0.73396713,3.59313668,3.26716576,-5.25766685,-0.73501991,-7.13950935
43443683243462,0.742489245,3.62615987,3.27249208,-5.29836827,-0.703895288,-7.02698187
43443684231700,0.747815568,3.65705254,3.27888367,-5.3294929,-0.670376465,-6.85220515
43443685219937,0.752076625,3.68794521,3.28527525,-5.35582911,-0.524330164,-6.85459935
43443686208174,0.754207154,3.71777262,3.29166684,-5.37258853,-0.359130249,-6.96712683
43443687196411,0.755272419,3.74546949,3.30125422,-5.4803276,-0.320823022,-6.98628044
43443688185631,0.757402947,3.77316637,3.3108416,-5.6263739,-0.237025964,-6.85938776
43443689173868,0.758468212,3.79766745,3.32255951,-5.75805499,-0.0550666382,-6.67264003
43443690162106,0.757402947,3.81897274,3.33427742,-5.86339987,0.0957680664,-6.61996759
43443691150343,0.752076625,3.83921276,3.34493006,-5.9184665,0.313640417,-6.68221683
43443692138580,0.742489245,3.85838752,3.35664797,-5.96635054,0.524330164,-6.73967767
43443693126817,0.73396713,3.87756228,3.37049641,-5.97832155,0.651222852,-6.79713851
43443694116037,0.725445014,3.89673704,3.38754064,-6.0573302,0.761356128,-6.94318481
43443695104274,0.719053428,3.91484654,3.40245434,-6.21055911,0.847547388,-7.11077893
43443696092511,0.712661841,3.93295603,3.41736804,-6.32787499,0.984016882,-7.19218179
43443697080749,0.706270255,3.95106553,3.43121648,-6.39491263,1.16358201,-7.206547
43443698068986,0.703074461,3.96917502,3.44506492,-6.44997927,1.48679923,-7.37653531
43443699057223,0.700943932,3.99048031,3.45784809,-6.52659373,1.83874688,-7.67341632
43443700046443,0.694552412,4.01391613,3.47382706,-6.58166036,2.01112939,-7.7931264
43443701034680,0.684965032,4.03735195,3.49193655,-6.60320818,2.19787712,-7.87452926
43443702022917,0.674312388,4.06078776,3.51217658,-6.6271502,2.42293208,-8.02296976
43443703011155,0.662594479,4.08528885,3.5356124,-6.64390961,2.60489141,-8.16422766
43443703999392,0.65087657,4.11192046,3.56011348,-6.636727,2.66474645,-8.12831464
43443704987629,0.640223926,4.1406826,3.58567983,-6.72291826,2.67911166,-8.06367119
43443705976849,0.628506017,4.16518368,3.61124617,-6.88572397,2.7437551,-8.04691178
43443706965086,0.617853373,4.1854237,3.63361672,-6.95755002,2.79403334,-7.99184514
43443707953323,0.606135464,4.2035332,3.65705254,-7.01501086,2.82994636,-7.98945094
43443708941560,0.592287026,4.22270796,3.6794231,-7.08683691,2.83473477,-8.05170018
43443709929798,0.578438589,4.24188272,3.70072838,-7.03655868,2.84670577,-8.02775817
43443710918035,0.564590151,4.25999221,3.72309894,-6.94318481,2.85388838,-7.99184514
43443711907254,0.551806945,4.27597118,3.74653476,-6.93839641,2.81797535,-8.15943926
43443712895492,0.5411543,4.29514594,3.76997057,-6.98388624,2.82276376,-8.37731161
43443713883729,0.529436391,4.31219017,3.7902106,-6.99106885,2.83712897,-8.47068547
43443714871966,0.517718483,4.33029967,3.80938536,-6.98867465,2.81079275,-8.5137811
43443715860203,0.507065838,4.35160495,3.82856012,-7.08683691,2.76530292,-8.5089927
43443716848441,0.496413194,4.37291024,3.84666961,-7.24485422,2.70784208,-8.5018101
43443717837660,0.487891078,4.38888921,3.86264858,-7.33822809,2.65038124,-8.52096371
43443718825898,0.480434227,4.40167238,3.87756228,-7.38371792,2.51630594,-8.56405934
43443719814135,0.472977376,4.4101945,3.89141072,-7.48188019,2.26970317,-8.60954917
43443720802372,0.464455261,4.41978188,3.90206336,-7.32146868,2.3056162,-8.91600698
43443721790609,0.460194203,4.43363032,3.91378127,-7.17542238,2.54503636,-9.3756937
43443722778847,0.455933145,4.45280508,3.92869497,-7.24724843,2.5953146,-9.63666168
43443723768066,0.449541559,4.47411063,3.94254341,-7.20175859,2.63122762,-9.79228479
43443724756303,0.444215237,4.49648118,3.95639185,-7.34301649,2.5929204,-9.78270798
43443725744541,0.441019443,4.51565594,3.97130555,-7.52018741,2.4492683,-9.64863269
43443726732778,0.445280501,4.53270018,3.98302346,-7.57046565,2.64798704,-9.78989059
43443727721015,0.452737352,4.55080967,3.99261084,-7.61356128,2.99993468,-10.2423947
43443728709252,0.45699841,4.5710497,4.00006769,-7.67341632,3.03824191,-10.4530844
43443729698472,0.455933145,4.59555078,4.00965507,-7.69735834,2.93768544,-10.4866033
43443730686709,0.453802616,4.62218239,4.01924245,-7.72369456,2.92571443,-10.6541974
43443731674947,0.450606823,4.64987926,4.02882983,-7.74045397,3.09570275,-10.9989624
43443732663184,0.446345765,4.67970667,4.03735195,-7.74763657,3.1723172,-11.1474029
43443733651421,0.439954179,4.70953407,4.04693933,-7.87452926,3.08373174,-11.0707885
43443734639658,0.434627857,4.73829621,4.05865723,-7.98466254,3.07894333,-11.0899421
43443735628878,0.42823627,4.76705835,4.07144041,-8.0756422,3.11964476,-10.994174
43443736617115,0.422909948,4.79368996,4.08209305,-8.19056388,3.05260712,-10.8241857
43443737605352,0.415453097,4.81819104,4.0927457,-8.27436094,2.95444485,-10.7978495
43443738593590,0.406930981,4.83949633,4.10233308,-8.29351455,2.97359846,-10.8816465
43443739581827,0.398408866,4.85867109,4.11085519,-8.3629464,2.90177241,-11.0444523
43443740570064,0.38988675,4.88210691,4.11831204,-8.5137811,2.75333191,-11.279084
43443741559284,0.381364635,4.90980379,4.12470363,-8.6598274,2.74854351,-11.5089274
43443742547521,0.369646726,4.93963119,4.12896469,-8.76277808,2.77727393,-11.6717331
43443743535758,0.356863553,4.96945859,4.13109522,-8.84896934,2.78685073,-11.7914432
43443744523996,0.347276206,5.00035126,4.13216048,-9.02135186,2.79163914,-11.8512982
43443745512233,0.336623562,5.0323092,4.13322575,-9.15782135,2.84909998,-11.9015765
43443746500470,0.322775124,5.06320186,4.13535627,-9.31823286,2.86346519,-12.0332575
43443747489690,0.308926686,5.08983348,4.13535627,-9.49779799,2.82755216,-12.1314198
43443748477927,0.296143513,5.11539982,4.13535627,-9.56962404,2.8802246,-12.3061965
43443749466164,0.28336034,5.14203143,4.1374868,-9.67018051,2.92571443,-12.4713964
43443750454401,0.269511886,5.16972831,4.13961733,-9.83777462,2.94007964,-12.4498486
43443751442639,0.252467655,5.19742518,4.14281313,-10.0029745,2.97359846,-12.4881559
43443752430876,0.235423424,5.22192627,4.14600892,-10.163386,3.11006796,-12.6389906
43443753420096,0.219444457,5.24429682,4.14920471,-10.3668932,3.19625922,-12.7299702
43443754408333,0.202400226,5.26347158,4.15453103,-10.5320931,3.18189401,-12.6940572
43443755396570,0.184290731,5.27945054,4.16092262,-10.6206786,3.25850846,-12.6844804
43443756384807,0.165115988,5.29329898,4.16837947,-10.9295306,3.00472308,-12.7299702
43443757373045,0.148071757,5.3018211,4.17477106,-11.2096522,2.34152922,-12.2654951
43443758361282,0.144875963,5.2986253,4.17370579,-11.2096522,2.50194073,-12.0476228
43443759350501,0.15126755,5.29329898,4.16731421,-11.2886608,3.10049115,-12.4833675
43443760338739,0.152332814,5.29116845,4.16305315,-11.3126028,3.25850846,-12.4522428
43443761326976,0.14168017,5.29542951,4.16411841,-11.3676695,3.18428821,-12.2391589
43443762315213,0.11717908,5.29969057,4.16731421,-11.4251303,3.15076938,-12.2559183
43443763303450,0.0905474687,5.3018211,4.17051,-11.2742956,3.33033451,-12.4761849
43443764291688,0.0660463909,5.30608216,4.17477106,-11.1114899,3.39018955,-12.691663
43443765280907,0.0447411022,5.31353901,4.18435844,-10.9391074,3.44046779,-12.6772978
43443766269144,0.0223705511,5.32525692,4.19714161,-10.8098205,3.6008793,-12.4761849
43443767257382,-0.00319579305,5.34123588,4.21312058,-10.8648871,3.71340677,-12.2750719
43443768245619,-0.031957931,5.35828011,4.22909954,-11.0899421,3.62960972,-12.3038023
43443769233856,-0.063915862,5.37319382,4.24507851,-11.2383826,3.49074602,-12.5025211
43443770223076,-0.0958737909,5.38384646,4.25999221,-11.3341507,3.47638081,-12.8688339
43443771211313,-0.124635931,5.39343384,4.27597118,-11.504139,3.35906493,-13.0819179
43443772199550,-0.150202285,5.40621701,4.29195015,-11.6669447,3.08133754,-13.1728975
43443773187788,-0.17044231,5.41793492,4.30366806,-11.8082026,2.91134922,-13.2710598
43443774176025,-0.188551789,5.4275223,4.31325544,-11.9063649,2.81558115,-13.3261264
43443775164262,-0.20559602,5.43391389,4.32284282,-12.0548054,2.65038124,-13.321338
43443776153482,-0.220509722,5.44030547,4.3292344,-12.2487357,2.42532628,-13.1393787
43443777141719,-0.233292895,5.44350127,4.33349546,-12.394782,2.19069452,-12.9957266
43443778129956,-0.247141333,5.44137074,4.33456072,-12.4761849,2.0135236,-12.9382658
43443779118193,-0.257793977,5.43391389,4.3324302,-12.5360399,1.80043965,-12.9478426
43443780106431,-0.265250828,5.42326124,4.3292344,-12.6485674,1.50595284,-13.0412164
43443781094668,-0.271642415,5.40941281,4.32390808,-12.7467296,1.16597621,-13.0962831
43443782083888,-0.276968737,5.39662963,4.31325544,-12.8113731,0.849941589,-13.1154367
43443783072125,-0.276968737,5.38384646,4.299407,-12.8688339,0.56263739,-13.1058599
43443784060362,-0.274838208,5.37319382,4.28236277,-12.8640455,0.308852014,-13.0172744
43443785048599,-0.271642415,5.36041064,4.26212274,-12.8712281,-0.0287304199,-12.964602
43443786036837,-0.267381357,5.349758,4.2365564,-12.8879875,-0.402225879,-12.9813614
43443787025074,-0.262055035,5.34017062,4.20779426,-12.7994021,-0.651222852,-13.0076976
43443788014293,-0.254598184,5.33058324,4.17583632,-12.5887123,-0.746990918,-12.9861498
43443789002531,-0.245010804,5.32206112,4.14387839,-12.3971762,-0.636857642,-12.8257383
43443789990768,-0.236488688,5.31566954,4.11405099,-12.3852052,-0.553060583,-12.4977327
43443790979005,-0.23222763,5.31034321,4.08422358,-12.5073095,-0.732625708,-12.097901
43443791967242,-0.23222763,5.30075583,4.05333091,-12.6365964,-0.976834277,-11.8536924
43443792955480,-0.233292895,5.2837116,4.02137298,-12.703634,-1.1540052,-11.789049
43443793944699,-0.233292895,5.26347158,3.98515399,-12.7323644,-1.39342537,-11.8058084
43443794932937,-0.233292895,5.24323155,3.94680447,-12.7587006,-1.68312377,-11.9159417
43443795921174,-0.231162366,5.22405679,3.90312863,-12.7227876,-1.98000477,-12.0763532
43443796909411,-0.226901308,5.20807783,3.85625699,-12.6270196,-2.23139595,-12.3061965
43443797897648,-0.220509722,5.19529465,3.80725483,-12.4929443,-2.46123931,-12.4211182
43443798885886,-0.209857077,5.18357675,3.75505687,-12.358869,-2.52827695,-12.2966197
43443799875105,-0.19600864,5.17398937,3.70179365,-12.3325328,-2.4444799,-12.1266314
43443800863342,-0.181094937,5.16546725,3.64959569,-12.3923878,-2.52348855,-11.9015765
43443801851580,-0.17044231,5.15268408,3.60059353,-12.4402718,-2.70544788,-11.587936
43443802839817,-0.16085493,5.13137879,3.5505261,-12.454637,-2.84431157,-11.4107651
43443803828054,-0.149137021,5.10474718,3.49726288,-12.4642138,-2.97838687,-11.3365449
43443804816291,-0.135288575,5.07598504,3.44293439,-12.4330892,-3.15555779,-11.1665565
43443805805511,-0.121440137,5.04509237,3.38967117,-12.3085907,-3.30878669,-11.1665565
43443806793748,-0.1075917,5.01526496,3.33427742,-12.1505734,-3.26808527,-11.3245739
43443807781986,-0.0916127332,4.98543756,3.27888367,-12.08593,-3.27526787,-11.2479594
43443808770223,-0.075633775,4.95667542,3.22562045,-12.0524112,-3.39737216,-11.0372697
43443809758460,-0.0607200687,4.92791328,3.17342249,-12.0931126,-3.44525619,-10.8505219
43443810746697,-0.046871631,4.89702061,3.12122453,-12.1721212,-3.44046779,-10.7308118
43443811735917,-0.0340884599,4.86399741,3.06689605,-12.133814,-3.37821854,-10.709264
43443812724154,-0.0234358155,4.8256479,3.01363282,-12.0380459,-3.28005627,-10.6948988
43443813712391,-0.0127831722,4.78623311,2.96250013,-12.0164981,-3.12443317,-10.7739075
43443814700629,-0.00213052874,4.75001412,2.91456323,-12.0907184,-2.95923325,-11.0013566
43443815688866,0.00745685053,4.71486039,2.87088739,-12.2104285,-2.81079275,-11.0779711
43443816677103,0.0138484366,4.67970667,2.82827681,-12.2726777,-2.55940157,-10.9079828
43443817666323,0.0159789655,4.64348768,2.78779703,-12.3133791,-2.23139595,-10.7379944
43443818654560,0.0138484366,4.60726869,2.74944751,-12.4378776,-1.98718738,-10.4818149
43443819642797,0.00745685053,4.56465811,2.71322852,-12.5240689,-1.79804545,-10.2376063
43443820631035,-0.00213052874,4.51672121,2.67807479,-12.454637,-1.69509478,-10.2950671
43443821619272,-0.0127831722,4.46771878,2.64611686,-12.3109849,-1.50355864,-10.424354
43443822607509,-0.0234358155,4.42297767,2.61948525,-12.2247937,-1.16597621,-10.4315366
43443823596729,-0.0351537264,4.38249762,2.59817996,-12.2391589,-0.761356128,-10.4602671
43443824584966,-0.0543284821,4.3441481,2.58220099,-12.2990139,-0.397437476,-10.4052004
43443825573203,-0.0766990394,4.30792911,2.56941782,-12.4163298,-0.217872351,-10.3740758
43443826561440,-0.102265378,4.26957959,2.55983044,-12.5623761,-0.00718260498,-10.2615483
43443827549678,-0.127831724,4.22377322,2.55237359,-12.6605384,0.210689746,-9.99579193
43443828537915,-0.15126755,4.17370579,2.54704727,-12.7754601,0.392649072,-9.86650504
43443829527134,-0.175768615,4.1225731,2.54491674,-12.9071411,0.538695374,-9.78270798
43443830515372,-0.20559602,4.06930988,2.54704727,-13.048399,0.574608398,-9.74679496
43443831503609,-0.234358159,4.01391613,2.54811253,-13.1944453,0.54827218,-9.84256302
43443832491846,-0.263120299,3.96065291,2.54811253,-13.297396,0.524330164,-9.86171664
43443833480083,-0.289751927,3.90419389,2.545982,-13.3069728,0.526724365,-9.70848773
43443834468321,-0.314253009,3.84453908,2.54491674,-13.2902134,0.524330164,-9.63666168
43443835457540,-0.337688826,3.7870148,2.54278621,-13.2662714,0.486022937,-9.61271967
43443836445778,-0.361124611,3.72949052,2.53959042,-13.237541,0.414196887,-9.56962404
43443837434015,-0.383495164,3.67196624,2.53745989,-13.2279642,0.292092603,-9.60314286
43443838422252,-0.405865717,3.61444197,2.53213356,-13.2112048,0.189141931,-9.56962404
43443839410489,-0.42823627,3.55904821,2.52574198,-13.237541,0.0550666382,-9.46906757
43443840398727,-0.44741103,3.50365446,2.51935039,-13.3428859,-0.165199915,-9.42597194
43443841387946,-0.465520525,3.44506492,2.50976301,-13.3883757,-0.387860669,-9.29668505
43443842376183,-0.484695285,3.38327958,2.49911037,-13.3309148,-0.600944617,-9.16739816
43443843364421,-0.501739516,3.32149425,2.48526193,-13.2830308,-0.837970581,-9.15303295
43443844352658,-0.515587954,3.25970891,2.46928296,-13.2638772,-1.17076461,-9.15063875
43443845340895,-0.527305863,3.19898884,2.44904294,-13.1728975,-1.46046301,-9.14345614
43443846330115,-0.540089036,3.14039929,2.42347659,-13.0148802,-1.60411511,-9.21528219
43443847318352,-0.548611151,3.08394028,2.39577972,-12.6653268,-1.70227738,-9.33978068
43443848306589,-0.55074168,3.02961179,2.36914811,-12.4091472,-1.8818425,-9.44751975
43443849294827,-0.546480622,2.97634857,2.34464702,-12.4450602,-2.13802208,-9.44273135
43443850283064,-0.542219565,2.92308535,2.31908068,-12.4522428,-2.37265385,-9.40921252
43443851271301,-0.539023771,2.86982212,2.29244907,-12.3804168,-2.5953146,-9.41400093
43443852260521,-0.532632185,2.81762417,2.2615564,-12.2702835,-2.77248552,-9.47146177
43443853248758,-0.523044805,2.76542648,2.22853307,-12.2367647,-3.00472308,-9.60553706
43443854236995,-0.510261632,2.71429378,2.19337934,-12.169727,-3.25850846,-9.61271967
43443855225232,-0.494282665,2.66529162,2.15609509,-12.1673328,-3.454833,-9.6653921
43443856213470,-0.477238434,2.61735472,2.11774557,-12.2104285,-3.69185896,-9.65342109
43443857201707,-0.461259468,2.57154835,2.07513499,-12.0188923,-3.82832845,-9.57920084
43443858190927,-0.443149972,2.52787251,2.03145915,-11.7938374,-3.86424148,-9.73482395
43443859179164,-0.420779419,2.48526193,1.98458751,-11.6765215,-3.96479795,-9.85453403
43443860167401,-0.396278337,2.44691241,1.93878114,-11.5927244,-4.09169064,-9.83298622
43443861155638,-0.371777255,2.40749763,1.89190951,-11.5017448,-4.18985291,-9.82580361
43443862143876,-0.348341471,2.37127863,1.84397261,-11.3293623,-4.19703551,-9.98382092
43443863132113,-0.322775124,2.34038597,1.79603571,-11.1689507,-4.24013114,-10.0819832
43443864121332,-0.297208778,2.31268909,1.74703354,-11.0133276,-4.27604417,-10.0867716
43443865109570,-0.272707679,2.28179642,1.70016191,-10.8816465,-4.25689055,-10.1442324
43443866097807,-0.246076068,2.25196902,1.65435554,-10.8002437,-4.30238038,-10.0604354
43443867086044,-0.218379193,2.22214148,1.60961443,-10.6829278,-4.35505282,-10.0053687
43443868074281,-0.190682317,2.19550987,1.56487332,-10.5727945,-4.35984122,-10.0532528
43443869062519,-0.164050723,2.16887826,1.51906695,-10.400412,-4.30716879,-10.0724064
43443870051738,-0.136353839,2.14224665,1.47539111,-10.2328179,-4.30477458,-10.1466266
43443871039976,-0.109722229,2.1166803,1.4338458,-10.1681745,-4.31195719,-10.2088759
43443872028213,-0.0809600971,2.09324448,1.39123535,-10.0364934,-4.25689055,-10.1825397
43443873016450,-0.0532632176,2.07087393,1.34969004,-9.83059202,-4.13239207,-10.163386
43443874004687,-0.0245010799,2.04956864,1.31027526,-9.69172832,-3.99113417,-10.1059252
43443874992925,0.00213052874,2.02613282,1.27405627,-9.63426748,-3.91451971,-10.0005803
43443875982144,0.0276968733,2.00163174,1.24209833,-9.54807622,-3.81396324,-10.0029745
43443876970381,0.0511326888,1.97713066,1.2101404,-9.44991395,-3.69185896,-10.0149455
43443877958619,0.075633775,1.95476011,1.17818247,-9.43076034,-3.53863005,-9.97184991
43443878946856,0.0990695842,1.93025902,1.14942033,-9.39484731,-3.3183635,-10.0005803
43443879935093,0.122505402,1.90362741,1.12491924,-9.26556042,-3.08612594,-9.96706151
43443880923330,0.145941228,1.8769958,1.10254862,-9.18176337,-2.77248552,-9.7994674
43443881912550,0.165115988,1.84823366,1.08443913,-9.12190833,-2.43490309,-9.62708488
43443882900787,0.184290731,1.81521047,1.07059069,-9.04050547,-2.11168586,-9.54089362
43443883889024,0.199204433,1.77899148,1.06206858,-8.95910261,-1.76692083,-9.5121632
43443884877262,0.209857077,1.74170722,1.05780752,-8.84896934,-1.41018478,-9.44273135
43443885865499,0.219444457,1.70442296,1.05887278,-8.7986911,-1.02950671,-9.39724152
43443886853736,0.229031837,1.66607344,1.06632963,-8.81066211,-0.732625708,-9.41400093
43443887842956,0.236488688,1.6255934,1.07698228,-8.85136354,-0.497993945,-9.45949076
43443888831193,0.239684481,1.58511335,1.08976545,-8.90164177,-0.196324536,-9.45949076
43443889819430,0.239684481,1.54356803,1.10467915,-8.92558379,0.146046301,-9.41400093
43443890807668,0.236488688,1.50308799,1.12278872,-9.00219824,0.4333505,-9.3804821
43443891795905,0.23222763,1.46047741,1.144094,-9.14345614,0.639251843,-9.31583866
43443892784142,0.226901308,1.4189321,1.16646456,-9.28471404,0.787692346,-9.25119521
43443893773362,0.218379193,1.37525639,1.18990038,-9.43554874,0.897825623,-9.18894597
43443894761599,0.206661284,1.33051528,1.21333619,-9.54328782,1.0079589,-9.19612858
43443895749836,0.192812846,1.28683944,1.23677201,-9.57920084,1.1563994,-9.32302126
43443896738073,0.17683388,1.24529413,1.26020783,-9.68693992,1.27850369,-9.3685111
43443897726311,0.159789665,1.20800987,1.28364365,-9.83059202,1.30962831,-9.29668505
43443898714548,0.14168017,1.16966035,1.30707946,-9.90002386,1.32159932,-9.27034883
43443899703768,0.121440137,1.13131083,1.32945002,-10.0221281,1.26174427,-9.31105026
43443900692005,0.101200113,1.09296124,1.34969004,-10.1969049,1.09893856,-9.27992563
43443901680242,0.0820253616,1.05354646,1.3688648,-10.3094323,0.991199487,-9.22007059
43443902668479,0.063915862,1.01413168,1.38590903,-10.3549222,0.952892261,-9.18894597
43443903656717,0.0458063666,0.974716892,1.40082273,-10.3860468,0.852335791,-9.14106194
43443904644954,0.0276968733,0.938497902,1.41467104,-10.4028062,0.672770667,-9.14345614
43443905634173,0.0106526444,0.902278911,1.42638895,-10.4913917,0.450109912,-9.2296474
43443906622411,-0.0063915861,0.868190449,1.43597633,-10.6158902,0.210689746,-9.33499227
43443907610648,-0.0213052887,0.835167251,1.44556371,-10.7020814,-0.0167594116,-9.35893429
43443908598885,-0.0362189908,0.800013525,1.45195529,-10.733206,-0.210689746,-9.34935748
43443909587122,-0.0479368955,0.764859798,1.45515109,-10.7020814,-0.335188232,-9.39005891
43443910575360,-0.0575242754,0.730771337,1.45621635,-10.6805336,-0.481234534,-9.40921252
43443911564579,-0.0671116553,0.697748206,1.45621635,-10.7140524,-0.675164868,-9.45230815
43443912552817,-0.075633775,0.665790273,1.45621635,-10.7834843,-0.842758984,-9.54328782
43443913541054,-0.083090626,0.634897604,1.45621635,-10.8002437,-0.943315454,-9.60074866
43443914529291,-0.0884169399,0.602939671,1.45408582,-10.8146089,-1.05584293,-9.60074866
43443915517528,-0.0916127332,0.572047002,1.45195529,-10.8361567,-1.18034142,-9.63187328
43443916506748,-0.093743262,0.542219565,1.44662897,-10.8624929,-1.27371528,-9.67736311
43443917494985,-0.0969390554,0.51239216,1.44130265,-10.9415016,-1.37906016,-9.69172832
43443918483222,-0.0990695842,0.482564756,1.4338458,-11.0013566,-1.49158763,-9.72045874
43443919471460,-0.100134849,0.454867881,1.42532368,-11.0851537,-1.61369192,-9.71327614
43443920459697,-0.0990695842,0.42823627,1.4157363,-11.1761333,-1.71424839,-9.73003555
43443921447934,-0.0980043198,0.402669924,1.40295313,-11.2168348,-1.79804545,-9.8090442
43443922437154,-0.0969390554,0.374973048,1.38803956,-11.2623246,-1.8746599,-9.82819781
43443923425391,-0.0969390554,0.348341471,1.37312586,-11.3126028,-1.91296713,-9.81862101
43443924413628,-0.0948085265,0.323840389,1.35714689,-11.3652753,-1.95606276,-9.80665
43443925401866,-0.093743262,0.300404571,1.34116792,-11.4490723,-2.0207062,-9.76355437
43443926390103,-0.0905474687,0.276968737,1.32412369,-11.4897738,-2.08295544,-9.68215151
43443927378340,-0.0884169399,0.249271861,1.30707946,-11.5615998,-2.14281049,-9.58638345
43443928367560,-0.0862864193,0.219444457,1.29003523,-11.6358201,-2.20266553,-9.54807622
43443929355797,-0.083090626,0.189617053,1.26979521,-11.6334259,-2.23618435,-9.52652841
43443930344034,-0.0788295683,0.159789665,1.24955518,-11.6621563,-2.25294376,-9.50498059
43443931332271,-0.075633775,0.131027517,1.22931516,-11.7315881,-2.32237561,-9.48822118
43443932320509,-0.0713727172,0.101200113,1.20800987,-11.872846,-2.41574948,-9.44273135
43443933308746,-0.0703074528,0.0681769197,1.18670458,-11.9949503,-2.49475813,-9.29429084
43443934297965,-0.0703074528,0.0340884599,1.1622035,-12.1122662,-2.58813199,-9.15303295
43443935286203,-0.0692421842,-0.00213052874,1.13557189,-12.1912749,-2.67671746,-9.0836011
43443936274440,-0.0671116553,-0.0404800486,1.10680968,-12.2080343,-2.70544788,-9.02853446
43443937262677,-0.0649811264,-0.0809600971,1.07698228,-12.2271879,-2.69587107,-9.00219824
43443938250915,-0.0617853331,-0.120374873,1.04715487,-12.1840922,-2.70305367,-8.96389102
43443939239152,-0.0607200687,-0.16085493,1.01839273,-12.1242372,-2.72460149,-9.02135186
43443940228371,-0.0564590109,-0.203465491,0.98856533,-12.157756,-2.79163914,-9.02853446
43443941216609,-0.0521979532,-0.246076068,0.958737926,-12.2128227,-2.8802246,-8.98304463
43443942204846,-0.0479368955,-0.288686662,0.929975786,-12.1601502,-2.90416661,-9.05965908
43443943193083,-0.0436758419,-0.329166711,0.899083117,-12.1074778,-2.885013,-9.13866774
43443944181320,-0.0394147841,-0.367516197,0.869255713,-12.109872,-2.89937821,-9.16500396
43443945169558,-0.0362189908,-0.405865717,0.839428309,-12.1122662,-2.92332023,-9.12669673
43443946158777,-0.031957931,-0.445280501,0.809600905,-12.1505734,-2.91613762,-9.06923589
43443947147014,-0.0276968733,-0.484695285,0.779773501,-12.1936691,-2.92810863,-8.98543883
43443948135252,-0.0245010799,-0.524110069,0.749946096,-12.1912749,-2.92332023,-8.95431421
43443949123489,-0.0213052887,-0.563524887,0.720118692,-12.1601502,-2.91134922,-8.97107362
43443950111726,-0.0202400243,-0.604004935,0.690291355,-12.1409966,-2.90895502,-8.97825623
43443951099963,-0.0191747598,-0.644484984,0.661529215,-12.1002952,-2.86107098,-9.02614026
43443952089183,-0.0181094954,-0.683899768,0.633832339,-12.0715648,-2.81797535,-9.01656345
43443953077420,-0.0159789655,-0.722249221,0.608265993,-12.0691706,-2.76769712,-8.96867942
43443954065658,-0.0127831722,-0.761664005,0.582699647,-12.0284691,-2.72220729,-8.95431421
43443955053895,-0.00958737992,-0.801078789,0.558198531,-12.0380459,-2.71502468,-8.91840118
43443956042132,-0.00745685053,-0.841558838,0.533697449,-12.0452286,-2.64798704,-8.89206497
43443957030369,-0.00532632218,-0.882038886,0.510261632,-12.0260749,-2.55940157,-8.88488236
43443958019589,-0.00213052874,-0.924649464,0.488956343,-12.0404401,-2.50912334,-8.84896934
43443959007826,0.00213052874,-0.96939057,0.469781583,-12.0811416,-2.4588451,-8.81545051
43443959996063,0.00532632218,-1.01413168,0.451672088,-12.1146604,-2.43011469,-8.81305631
43443960984301,0.0106526444,-1.05674225,0.431432063,-12.1314198,-2.40617267,-8.80587371
43443961972538,0.0170442299,-1.1004181,0.411192039,-12.1481792,-2.34871183,-8.78193169
43443962960775,0.0245010799,-1.14622453,0.393082544,-12.181698,-2.3056162,-8.72447085
43443963949995,0.031957931,-1.1952267,0.376038313,-12.2032459,-2.27688578,-8.69095203
43443964938232,0.0383495197,-1.24422886,0.361124611,-12.2271879,-2.26730897,-8.67898102
43443965926469,0.0458063666,-1.2911005,0.344080413,-12.2535241,-2.23618435,-8.63349119
43443966914707,0.0543284821,-1.34010266,0.327036182,-12.2367647,-2.20266553,-8.62630858
43443967902944,0.0628505976,-1.38803956,0.309991951,-12.2726777,-2.20266553,-8.61912598
43443968891181,0.0713727172,-1.43704159,0.295078249,-12.3492922,-2.19308872,-8.56405934
43443969880401,0.0809600971,-1.48604376,0.278034001,-12.3804168,-2.1643583,-8.49702169
43443970868638,0.0916127332,-1.53611118,0.26098977,-12.3756284,-2.10929166,-8.43716665
43443971856875,0.101200113,-1.58511335,0.242880275,-12.3660516,-2.07337864,-8.38688842
43443972845112,0.111852757,-1.63518078,0.225836044,-12.4163298,-2.07337864,-8.30309136
43443973833350,0.122505402,-1.68737873,0.210922342,-12.4713964,-2.05661923,-8.2216885
43443974821587,0.134223311,-1.73957669,0.19600864,-12.4857617,-2.03746561,-8.18816968
43443975810807,0.144875963,-1.79177465,0.178964409,-12.5408283,-2.018312,-8.13789144
43443976799044,0.154463343,-1.84397261,0.162985459,-12.6102601,-2.00394679,-8.06606539
43443977787281,0.164050723,-1.89830109,0.147006492,-12.6749036,-2.0135236,-7.97747993
43443978775518,0.174703368,-1.95369484,0.131027517,-12.7132108,-1.98958158,-7.88650027
43443979763756,0.18642126,-2.00802333,0.113983286,-12.7299702,-1.93930334,-7.82185682
43443980751993,0.197073904,-2.06235181,0.0958737909,-12.7730659,-1.94409175,-7.73327136
43443981741212,0.207726548,-2.11774557,0.0777643038,-12.8377093,-1.96803376,-7.6494743
43443982729450,0.217313928,-2.17420458,0.0617853331,-12.8760165,-1.94648595,-7.55370624
43443983717687,0.229031837,-2.23172886,0.0458063666,-12.8975643,-1.92014973,-7.44117876
43443984705924,0.239684481,-2.28925327,0.0276968733,-12.94066,-1.91057292,-7.41005414
43443985694161,0.250337126,-2.34890808,0.00958737992,-12.976573,-1.91296713,-7.3549875
43443986682399,0.262055035,-2.41069342,-0.00532632218,-13.0172744,-1.90099612,-7.22330641
43443987671618,0.273772943,-2.47247876,-0.0213052887,-13.0627643,-1.8794483,-7.16584557
43443988659856,0.285490869,-2.53319883,-0.0372842553,-13.0938889,-1.8818425,-7.13232675
43443989648093,0.297208778,-2.59604943,-0.0553937465,-13.1178309,-1.90339032,-7.04374128
43443990636330,0.308926686,-2.65890003,-0.0735032461,-13.1058599,-1.85550629,-6.95755002
43443991624567,0.320644595,-2.7228159,-0.0905474687,-13.000515,-1.67115276,-6.7755907
43443992613787,0.33129724,-2.78673176,-0.106526435,-12.7994021,-1.448492,-6.44997927
43443993602024,0.337688826,-2.85171263,-0.119309609,-12.679692,-1.40779058,-6.31590398
43443994590261,0.345145677,-2.91456323,-0.128896988,-12.7946137,-1.50355864,-6.52898793
43443995578499,0.353667759,-2.97741383,-0.138484368,-13.0292454,-1.63045133,-6.65588062
43443996566736,0.360059346,-3.03919917,-0.150202285,-13.2064164,-1.74776721,-6.65348641
43443997554973,0.367516197,-3.10311504,-0.164050723,-13.3835873,-1.82438167,-6.75404288
43443998544193,0.379234106,-3.16596564,-0.181094937,-13.6014596,-1.96563956,-6.95276162
43443999532430,0.38988675,-3.22562045,-0.202400226,-13.7786306,-2.09732065,-7.05810649
43444000520667,0.400539395,-3.28314473,-0.224770779,-13.8959464,-2.09013805,-6.98388624
43444001508904,0.412257303,-3.34173427,-0.247141333,-13.9318595,-2.00155259,-6.97430944
43444002497142,0.426105741,-3.40245434,-0.268446621,-13.9988971,-1.98479318,-6.96952103
43444003485379,0.439954179,-3.46743547,-0.287621398,-14.1545202,-2.07577284,-6.9288196
43444004474599,0.452737352,-3.5356124,-0.307861422,-14.2622593,-2.14520469,-6.91206019
43444005462836,0.467651054,-3.60378932,-0.328101446,-14.2790187,-2.14041628,-6.97430944
43444006451073,0.483630021,-3.67090098,-0.347276206,-14.2933839,-2.10210906,-7.10838473
43444007439310,0.498543723,-3.73481685,-0.366450933,-14.3316911,-2.07337864,-7.15387456
43444008427548,0.511326896,-3.79979798,-0.384560428,-14.3245085,-2.0207062,-7.10120212
43444009415785,0.525175334,-3.86477911,-0.402669924,-14.2718361,-1.92014973,-7.13472095
43444010405004,0.537958507,-3.92869497,-0.419714155,-14.2454999,-1.86029469,-7.17063397
43444011393242,0.548611151,-3.99048031,-0.434627857,-14.2454999,-1.83156427,-7.08444271
43444012381479,0.558198531,-4.05120038,-0.446345765,-14.2191637,-1.74537301,-7.07965431
43444013369716,0.567785944,-4.11192046,-0.455933145,-14.1784622,-1.63763394,-7.09641372
43444014357953,0.578438589,-4.17051,-0.46658579,-14.1808564,-1.5897499,-7.02458767
43444015346191,0.586960704,-4.22909954,-0.47617317,-14.1688854,-1.51792385,-6.95276162
43444016335410,0.593352291,-4.28768909,-0.483630021,-14.0850884,-1.37427175,-6.89530078
43444017323648,0.597613349,-4.34840916,-0.488956343,-14.0946652,-1.33596453,-6.87135876
43444018311885,0.599743877,-4.40699871,-0.493217401,-14.2478941,-1.42215579,-6.97191523
43444019300122,0.604004935,-4.46132719,-0.496413194,-14.425065,-1.53228906,-7.11317313
43444020288359,0.607200729,-4.51565594,-0.500674252,-14.5854765,-1.60650931,-7.14669196
43444021276597,0.609331257,-4.5710497,-0.508131103,-14.7147634,-1.5897499,-7.16584557
43444022265816,0.613592315,-4.62537818,-0.516653218,-14.8584155,-1.55383688,-7.23527742
43444023254053,0.617853373,-4.68077193,-0.525175334,-14.9877024,-1.55623108,-7.30231506
43444024242291,0.623179695,-4.73616568,-0.532632185,-15.0858647,-1.5897499,-7.33104548
43444025230528,0.627440753,-4.7926247,-0.5411543,-15.1816327,-1.5897499,-7.37174691
43444026218765,0.631701811,-4.84695318,-0.548611151,-15.2414878,-1.57059629,-7.43878456
43444027207002,0.637028133,-4.90234693,-0.556068002,-15.2606414,-1.56820209,-7.47230338
43444028196222,0.643419719,-4.95561016,-0.562459622,-15.3085254,-1.56820209,-7.46751498
43444029184459,0.648746042,-5.00780811,-0.569916473,-15.3827457,-1.56341368,-7.46272657
43444030172697,0.653007099,-5.06107134,-0.577373324,-15.4138703,-1.53707747,-7.44357296
43444031160934,0.655137628,-5.11539982,-0.583764911,-15.4617543,-1.47961663,-7.41244834
43444032149171,0.657268157,-5.16653251,-0.589091233,-15.4713311,-1.40539637,-7.42441935
43444033137408,0.658333421,-5.21766521,-0.596548084,-15.4545717,-1.36708915,-7.40765994
43444034126628,0.658333421,-5.2687979,-0.601874406,-15.4713311,-1.33835873,-7.3597759
43444035114865,0.658333421,-5.31780006,-0.607200729,-15.4569659,-1.3048399,-7.34062229
43444036103102,0.658333421,-5.36573696,-0.612527051,-15.4904847,-1.3000515,-7.32625708
43444037091340,0.657268157,-5.41367386,-0.617853373,-15.5216094,-1.2928689,-7.30470927
43444038079577,0.655137628,-5.4605455,-0.622114431,-15.5718876,-1.28808049,-7.30710347
43444039067814,0.655137628,-5.50528661,-0.626375488,-15.6796267,-1.31920511,-7.34062229
43444040057034,0.653007099,-5.55215824,-0.632767075,-15.7466643,-1.32878192,-7.32146868
43444041045271,0.65087657,-5.59902988,-0.640223926,-15.7179339,-1.24977327,-7.2113354
43444042033508,0.646615513,-5.64483571,-0.648746042,-15.7011745,-1.19710083,-7.13711515
43444043021746,0.645550248,-5.68957682,-0.656202893,-15.7538469,-1.19470663,-7.0628949
43444044009983,0.643419719,-5.73431793,-0.664725008,-15.8160962,-1.20907184,-7.13472095
43444044998220,0.640223926,-5.77799377,-0.673247124,-15.9549599,-1.32638772,-7.36935271
43444045987440,0.638093397,-5.82166961,-0.683899768,-16.1201598,-1.4437036,-7.42920775
43444046975677,0.637028133,-5.86534545,-0.696682941,-16.2207162,-1.46046301,-7.44836136
43444047963914,0.637028133,-5.90902129,-0.712661841,-16.3093017,-1.49398184,-7.54412943
43444048952151,0.638093397,-5.95163187,-0.727575543,-16.3667625,-1.50595284,-7.63271489
43444049940389,0.639158662,-5.99424245,-0.74355451,-16.3907046,-1.48201083,-7.68299313
43444050928626,0.64128919,-6.03791829,-0.759533476,-16.431406,-1.48440503,-7.7811554
43444051917845,0.646615513,-6.08052887,-0.775512443,-16.431406,-1.49637604,-7.9295959
43444052906083,0.653007099,-6.12313945,-0.790426145,-16.4625306,-1.5873557,-8.09958422
43444053894320,0.661529215,-6.16575002,-0.807470376,-16.5439335,-1.67594116,-8.29830295
43444054882557,0.672181859,-6.20729534,-0.825579871,-16.6037885,-1.67594116,-8.3605522
43444055870794,0.682834503,-6.24777538,-0.843689367,-16.6037885,-1.65918175,-8.3629464
43444056859032,0.694552412,-6.2893207,-0.860733598,-16.6013943,-1.70467158,-8.38928262
43444057848251,0.707335519,-6.33086601,-0.876712564,-16.6085769,-1.74058461,-8.46589707
43444058836489,0.719053428,-6.37241132,-0.893756795,-16.5870291,-1.70467158,-8.61673177
43444059824726,0.732901865,-6.41395664,-0.909735762,-16.5535103,-1.70467158,-8.68855782
43444060812963,0.745685039,-6.45337142,-0.925714728,-16.5128089,-1.71903679,-8.70052883
43444061801200,0.758468212,-6.49172094,-0.941693695,-16.5056262,-1.7310078,-8.75798967
43444062790420,0.774447178,-6.53113572,-0.956607397,-16.4745016,-1.71664259,-8.82981572
43444063778657,0.790426145,-6.57055051,-0.971521099,-16.4122524,-1.66636436,-8.84178673
43444064766894,0.805339847,-6.60996529,-0.985369537,-16.3476089,-1.63284553,-8.7962969
43444065755132,0.81812302,-6.64831481,-0.999217974,-16.2638119,-1.5873557,-8.81066211
43444066743369,0.830906194,-6.68559907,-1.01200115,-16.1800148,-1.55144268,-8.91361278
43444067731606,0.843689367,-6.71968753,-1.02478432,-16.1177656,-1.55623108,-9.02853446
43444068720826,0.855407276,-6.75164546,-1.03650223,-16.0890352,-1.51792385,-9.05965908
43444069709063,0.86605992,-6.78466866,-1.05035067,-16.0291801,-1.43412679,-9.15063875
43444070697300,0.877777829,-6.81662659,-1.06313384,-15.9549599,-1.39103116,-9.25598362
43444071685538,0.889495738,-6.84751926,-1.07378648,-15.8879222,-1.34314713,-9.28471404
43444072673775,0.901213646,-6.87734667,-1.08443913,-15.7921542,-1.21146604,-9.31583866
43444073662012,0.911866291,-6.90610881,-1.09615704,-15.6844151,-1.09654436,-9.29189664
43444074651232,0.921453671,-6.93274042,-1.10680968,-15.6341368,-1.06063134,-9.31583866
43444075639469,0.931041051,-6.95617623,-1.1153318,-15.6030122,-1.0151415,-9.42597194
43444076627706,0.939563166,-6.97961205,-1.12385398,-15.576676,-1.0079589,-9.45949076
43444077615943,0.944889488,-7.00304787,-1.1323761,-15.5311862,-0.988805286,-9.35654009
43444078604181,0.949150546,-7.02541842,-1.14089821,-15.4306297,-0.902614026,-9.30386765
43444079592418,0.952346339,-7.04565845,-1.15048559,-15.3803515,-0.869095203,-9.3685111
43444080581638,0.954476868,-7.06483321,-1.15900771,-15.3683805,-0.890643018,-9.47625017
43444081569875,0.955542133,-7.08187744,-1.16752982,-15.327679,-0.924161841,-9.52892261
43444082558112,0.956607397,-7.0978564,-1.17605194,-15.2702182,-0.905008228,-9.48103857
43444083546349,0.958737926,-7.11277011,-1.18457405,-15.1768443,-0.849941589,-9.48343278
43444084534587,0.95980319,-7.12448802,-1.19416143,-15.0762879,-0.794874951,-9.56962404
43444085522824,0.960868455,-7.1340754,-1.20481408,-15.0092502,-0.718260498,-9.57441244
43444086512043,0.961933719,-7.14366278,-1.21227093,-14.9278474,-0.63446344,-9.5241342
43444087500281,0.962998984,-7.15111963,-1.21972778,-14.8655981,-0.567425793,-9.45949076
43444088488518,0.964064248,-7.15857648,-1.22931516,-14.8464445,-0.521935962,-9.35654009
43444089476755,0.961933719,-7.16603333,-1.23464148,-14.7841953,-0.440533105,-9.23922421
43444090464992,0.95980319,-7.17349018,-1.24209833,-14.733917,-0.354341846,-9.13387933
43444091453230,0.957672661,-7.18094703,-1.24848992,-14.7650416,-0.337582434,-9.06205328
43444092442449,0.955542133,-7.19053441,-1.25488151,-14.8512329,-0.344765039,-9.02135186
43444093430687,0.952346339,-7.19905653,-1.26233836,-14.8679923,-0.301669409,-8.96389102
43444094418924,0.949150546,-7.20864391,-1.27086047,-14.7985605,-0.179565125,-8.91840118
43444095407161,0.943824224,-7.21716602,-1.27938259,-14.7650416,-0.0502782349,-8.90643018
43444096395398,0.939563166,-7.2267534,-1.2879047,-14.686033,0.0430956299,-8.73883606
43444097383636,0.934236844,-7.23634078,-1.29429629,-14.5519577,0.146046301,-8.57603035
43444098372855,0.926779993,-7.24592816,-1.29962261,-14.4921026,0.237025964,-8.64546219
43444099361092,0.918257877,-7.25338501,-1.30494893,-14.5639287,0.237025964,-8.68855782
43444100349330,0.907605233,-7.2597766,-1.30814473,-14.6142069,0.220266553,-8.63588539
43444101337567,0.896952589,-7.26829871,-1.31134052,-14.5687171,0.260967981,-8.61912598
43444102325804,0.888430473,-7.27575557,-1.31560158,-14.5543519,0.253785376,-8.64067379
43444103314041,0.880973622,-7.28001662,-1.31773211,-14.5543519,0.215478149,-8.69813463
43444104303261,0.8756473,-7.28534295,-1.31986264,-14.5208331,0.284909998,-8.73165345
43444105291498,0.872451507,-7.29173453,-1.32305843,-14.4657664,0.392649072,-8.73404766
43444106279735,0.868190449,-7.29599559,-1.32412369,-14.3843636,0.488417139,-8.72207665
43444107267973,0.86605992,-7.29812612,-1.32305843,-14.3676042,0.557848987,-8.63588539
43444108256210,0.863929391,-7.30238718,-1.31879737,-14.4514012,0.584185205,-8.5018101
43444109244447,0.860733598,-7.30877876,-1.31240579,-14.5304099,0.584185205,-8.38210001
43444110233667,0.85647254,-7.31730088,-1.30920999,-14.6237837,0.538695374,-8.32942758
43444111221904,0.853276747,-7.32795352,-1.30707946,-14.6333605,0.51954176,-8.42998405
43444112210141,0.84688516,-7.33860617,-1.30494893,-14.5735055,0.497993945,-8.63349119
43444113198379,0.842624102,-7.34499775,-1.30281841,-14.5016795,0.517147559,-8.76517228
43444114186616,0.841558838,-7.34712828,-1.30068788,-14.437036,0.581791003,-8.86812295
43444115174853,0.842624102,-7.34499775,-1.29749208,-14.4777374,0.59136781,-8.9375548
43444116164073,0.843689367,-7.34180196,-1.29642682,-14.4897084,0.622492432,-8.97825623
43444117152310,0.843689367,-7.34180196,-1.29323103,-14.4154882,0.69192428,-9.05487068
43444118140547,0.84688516,-7.3407367,-1.2879047,-14.3245085,0.756567725,-9.16979236
43444119128784,0.852211482,-7.3375409,-1.28151312,-14.2215579,0.811634363,-9.26316622
43444120117022,0.85647254,-7.33327985,-1.27192574,-14.1257898,0.835576379,-9.30386765
43444121105259,0.860733598,-7.32795352,-1.26020783,-13.9797435,0.730231506,-9.30626185
43444122094479,0.868190449,-7.32156194,-1.24635939,-13.9869261,0.588973608,-9.30865605
43444123082716,0.8756473,-7.31517035,-1.23251095,-14.0443869,0.603338818,-9.21767639
43444124070953,0.879908358,-7.31090929,-1.21866251,-14.0180507,0.7206547,-9.0812069
43444125059190,0.882038886,-7.30984403,-1.20587934,-14.0659348,0.74938512,-9.02374606
43444126047428,0.886299944,-7.30984403,-1.19309617,-14.0826942,0.64882865,-8.96628522
43444127035665,0.889495738,-7.30984403,-1.180313,-14.0898768,0.514753357,-8.91600698
43444128024884,0.892691531,-7.31090929,-1.16966035,-14.0348101,0.404620081,-8.98304463
43444129013122,0.896952589,-7.30877876,-1.16326876,-13.9486189,0.366312854,-9.04768807
43444130001359,0.901213646,-7.30451771,-1.15794244,-13.867216,0.385466467,-8.99501564
43444130989596,0.905474704,-7.30025665,-1.15474665,-13.7499001,0.373495459,-9.00938085
43444131977833,0.908670497,-7.29386506,-1.15048559,-13.6254016,0.313640417,-9.04289967
43444132966071,0.911866291,-7.28534295,-1.14515927,-13.5368162,0.253785376,-9.16500396
43444133955290,0.916127348,-7.2746903,-1.14089821,-13.4769611,0.193930334,-9.35893429
43444134943528,0.920388406,-7.2597766,-1.13663715,-13.4242887,0.148440503,-9.46188496
43444135931765,0.925714728,-7.23953657,-1.13450662,-13.3620395,0.189141931,-9.46188496
43444136920002,0.933171579,-7.21823129,-1.1323761,-13.309367,0.299275208,-9.38527051
43444137908239,0.941693695,-7.196926,-1.13024557,-13.3069728,0.361524451,-9.42357773
43444138897459,0.952346339,-7.17668597,-1.12704977,-13.2878192,0.383072266,-9.3756937
43444139885696,0.961933719,-7.15857648,-1.12278872,-13.2471178,0.399831677,-9.18415757
43444140873933,0.972586364,-7.14259751,-1.11852766,-13.2399352,0.399831677,-9.16979236
43444141862171,0.982173743,-7.12555328,-1.11320127,-13.2806366,0.359130249,-9.17218656
43444142850408,0.989630594,-7.10957431,-1.10787495,-13.3309148,0.320823022,-9.09557211
43444143838645,0.997087446,-7.09572588,-1.10254862,-13.3404917,0.339976636,-9.02135186
43444144827865,1.00347903,-7.08187744,-1.09828757,-13.3452801,0.313640417,-8.95670841
43444145816102,1.01200115,-7.06696374,-1.09615704,-13.4003467,0.296881006,-9.00698665
43444146804339,1.01839273,-7.0531153,-1.09402651,-13.2686656,0.342370837,-9.02853446
43444147792577,1.02478432,-7.0382016,-1.08976545,-13.1752917,0.426167896,-9.04050547
43444148780814,1.03330644,-7.02115737,-1.08337386,-13.297396,0.371101257,-8.92558379
43444149769051,1.04289382,-7.0051784,-1.07698228,-13.3931641,0.325611426,-8.655039
43444150758271,1.0492854,-6.99346049,-1.07272122,-13.3955583,0.380678064,-8.60715497
43444151746508,1.0524812,-6.98280785,-1.06952543,-13.3117612,0.316034619,-8.54011732
43444152734745,1.05674225,-6.97002467,-1.0673949,-13.2878192,0.208295544,-8.34618699
43444153722982,1.05887278,-6.95937203,-1.06526437,-13.2447236,0.0574608398,-8.30309136
43444154711220,1.05993805,-6.94978465,-1.06526437,-13.1417729,0.0167594116,-8.44434926
43444155699457,1.06206858,-6.939132,-1.06526437,-13.0531875,0.0694318481,-8.48026228
43444156688676,1.06526437,-6.92315304,-1.06526437,-12.9669962,0.0837970581,-8.48744489
43444157676914,1.07059069,-6.90610881,-1.06526437,-12.8688339,0.124498486,-8.655039
43444158665151,1.07911281,-6.88693405,-1.06419911,-12.7898253,0.201112939,-8.68616362
43444159653388,1.08763492,-6.86562876,-1.06206858,-12.8089789,0.186747729,-8.54490573
43444160641626,1.09509177,-6.8432582,-1.05887278,-12.9023527,0.0885854614,-8.34858119
43444161629863,1.1004181,-6.82088765,-1.05674225,-13.0172744,0.00239420166,-8.14267985
43444162619082,1.10467915,-6.80277816,-1.05674225,-13.1226193,-0.0191536133,-8.00621035
43444163607320,1.10787495,-6.79106025,-1.05887278,-13.1705033,0.0311246216,-7.9248075
43444164595557,1.11107074,-6.78147287,-1.05887278,-13.201628,0.0670376465,-7.9367785
43444165583794,1.11107074,-6.77188549,-1.05887278,-13.1609265,0.11492168,-7.91762489
43444166572031,1.10787495,-6.76123284,-1.06100331,-13.1034657,0.153228906,-7.81706842
43444167560269,1.10361389,-6.74844967,-1.06419911,-13.0388222,0.196324536,-7.7907322
43444168549488,1.1004181,-6.73460123,-1.06632963,-12.964602,0.253785376,-7.83143363
43444169537725,1.09828757,-6.72075279,-1.0673949,-12.9095354,0.265756384,-7.86016405
43444170525963,1.09296124,-6.70690436,-1.0673949,-12.8209499,0.265756384,-7.81946262
43444171514200,1.08656966,-6.68986013,-1.0673949,-12.7060282,0.296881006,-7.81467422
43444172502437,1.08017807,-6.6696201,-1.0673949,-12.5958949,0.335188232,-7.82185682
43444173490674,1.07485175,-6.64831481,-1.06526437,-12.5120979,0.332794031,-7.76918439
43444174479894,1.06846016,-6.62807479,-1.06100331,-12.3660516,0.344765039,-7.73327136
43444175468131,1.06206858,-6.60783476,-1.05674225,-12.145785,0.509964954,-7.81706842
43444176456369,1.05674225,-6.58439895,-1.04822014,-11.8943938,0.59136781,-7.76918439
43444177444606,1.05141593,-6.5588326,-1.03117591,-12.0548054,0.565031592,-7.29513246
43444178432843,1.04182855,-6.53752731,-1.00880535,-12.5216747,0.407014282,-6.58644877
43444179421080,1.02691485,-6.52474414,-0.987500066,-13.0316396,-0.0790086548,-6.11957944
43444180410300,1.0045443,-6.5290052,-0.976847421,-13.0819179,-0.509964954,-6.24407793
43444181398537,0.982173743,-6.5407231,-0.976847421,-12.6126543,-0.64882865,-6.98149204
43444182386774,0.971521099,-6.53965784,-0.981108479,-12.0428344,-0.545877979,-7.82425103
43444183375012,0.977912686,-6.51835255,-0.982173743,-11.6262433,-0.555454785,-8.35097539
43444184363249,0.98856533,-6.48213356,-0.97897795,-11.480197,-0.627280835,-8.51617531
43444185351486,1.00241377,-6.43845772,-0.972586364,-11.4371013,-0.584185205,-8.43477245
43444186340706,1.019458,-6.39265135,-0.965129512,-11.5687824,-0.646434448,-8.35336959
43444187328943,1.03969802,-6.35430183,-0.958737926,-11.6334259,-0.63446344,-8.25520732
43444188317180,1.06100331,-6.32447442,-0.953411604,-11.51611,-0.474051929,-8.16183346
43444189305418,1.0823086,-6.29997334,-0.948085281,-11.2814782,-0.330399829,-8.06367119
43444190293655,1.10574442,-6.27334173,-0.942758959,-11.1378261,-0.270544788,-7.95114371
43444191281892,1.12704977,-6.24457959,-0.936367373,-11.1043073,-0.244208569,-7.77636699
43444192271112,1.14302874,-6.21581745,-0.927845257,-11.0803653,-0.181959326,-7.46751498
43444193259349,1.15581191,-6.18812058,-0.920388406,-11.006145,-0.11492168,-7.08683691
43444194247586,1.16752982,-6.16255423,-0.91399682,-10.8960118,-0.00239420166,-6.79713851
43444195235823,1.17924773,-6.14018368,-0.907605233,-10.7571481,0.0766144531,-6.58884297
43444196224061,1.18883511,-6.12207418,-0.899083117,-10.5847655,0.110133276,-6.37575902
43444197212298,1.19735723,-6.10716048,-0.889495738,-10.3932294,0.124498486,-6.22013591
43444198201518,1.20374881,-6.09224678,-0.879908358,-10.2400005,0.0885854614,-6.10760844
43444199189755,1.20800987,-6.07413728,-0.871386242,-10.1609918,0.0454898315,-5.97832155
43444200177992,1.21227093,-6.05602779,-0.864994655,-10.0580412,0.01436521,-5.86579407
43444201166229,1.21333619,-6.03685303,-0.859668333,-9.91678328,-0.0119710083,-5.79396802
43444202154467,1.21440146,-6.0198088,-0.851146218,-9.80665,-0.0335188232,-5.75087239
43444203142704,1.21759725,-5.99956877,-0.842624102,-9.71327614,-0.0957680664,-5.72453617
43444204131923,1.22398884,-5.97932875,-0.834101987,-9.6606037,-0.150834705,-5.70777676
43444205120161,1.23038042,-5.95908872,-0.8277104,-9.6629979,-0.153228906,-5.60243188
43444206108398,1.23464148,-5.9388487,-0.820253549,-9.63666168,-0.153228906,-5.43004937
43444207096635,1.23783727,-5.9207392,-0.811731434,-9.56483563,-0.0311246216,-5.32231029
43444208084872,1.2399678,-5.90369497,-0.801078789,-9.42597194,-0.0718260498,-5.15471617
43444209073110,1.24103307,-5.88984653,-0.787230352,-9.35414589,-0.251391174,-5.12119735
43444210062329,1.2399678,-5.8759981,-0.77231665,-9.28710824,-0.196324536,-5.24569584
43444211050567,1.23890254,-5.8578886,-0.757402947,-9.01656345,0.220266553,-5.43244357
43444212038804,1.23677201,-5.83551805,-0.737162923,-8.71728824,0.560243188,-5.27442626
43444213027041,1.23677201,-5.81208223,-0.70520499,-9.0883895,0.632069238,-4.43166727
43444214015278,1.22824989,-5.79610326,-0.664725008,-9.93114849,0.457292517,-3.38540115
43444215004498,1.20694461,-5.795038,-0.627440753,-10.6278612,-0.375889661,-2.77487972
43444215992735,1.17392141,-5.81101697,-0.6050702,-10.7308118,-1.12766898,-2.87064779
43444216980972,1.144094,-5.83658331,-0.598678613,-10.2400005,-1.32159932,-3.43567938
43444217969210,1.1323761,-5.84830122,-0.599743877,-9.86171664,-1.56341368,-4.02465299
43444218957447,1.13450662,-5.83658331,-0.602939671,-9.58398925,-1.91775553,-4.1754877
43444219945684,1.14089821,-5.81421276,-0.608265993,-9.31105026,-2.10689746,-4.20182391
43444220934904,1.15261612,-5.78651588,-0.616788108,-9.02853446,-2.10450326,-4.29519778
43444221923141,1.17179088,-5.75242742,-0.626375488,-8.84178673,-2.04464822,-4.3239282
43444222911378,1.19629196,-5.71514317,-0.630636546,-8.73165345,-1.97282217,-4.20661232
43444223899615,1.22292357,-5.6810547,-0.633832339,-8.6478564,-1.78846864,-4.01986459
43444224887853,1.24955518,-5.64803151,-0.634897604,-8.64306799,-1.59693251,-3.98873997
43444225876090,1.27405627,-5.6182041,-0.632767075,-8.74841287,-1.57538469,-3.95043274
43444226865310,1.29536155,-5.59050776,-0.633832339,-8.91121858,-1.66875856,-3.68467635
43444227853547,1.31240579,-5.56600668,-0.637028133,-9.01656345,-1.66397015,-3.28484468
43444228841784,1.32625422,-5.54363613,-0.64128919,-9.10275471,-1.48201083,-2.93768544
43444229830021,1.3390374,-5.52552663,-0.645550248,-9.14345614,-1.32159932,-2.71502468
43444230818259,1.34969004,-5.51274346,-0.65087657,-9.11233152,-1.27610948,-2.56658418
43444231806496,1.35608163,-5.50422134,-0.655137628,-8.99262144,-1.23780226,-2.40617267
43444232795715,1.36353848,-5.49996028,-0.659398686,-8.85136354,-1.17076461,-2.32237561
43444233783953,1.37206059,-5.49569923,-0.663659744,-8.74362446,-1.09893856,-2.28885679
43444234772190,1.38164797,-5.4903729,-0.664725008,-8.66940421,-0.881066211,-2.19787712
43444235760427,1.38803956,-5.48504658,-0.662594479,-8.66461581,-0.809240161,-1.94409175
43444236748664,1.38910482,-5.48291605,-0.658333421,-8.81784471,-1.04147772,-1.65678755
43444237736902,1.38590903,-5.48504658,-0.658333421,-8.88009396,-1.14442839,-1.57299049
43444238726121,1.3837785,-5.48930764,-0.663659744,-8.75798967,-1.23540806,-1.7310078
43444239714359,1.38271324,-5.49143817,-0.668986066,-8.6526448,-1.34554133,-1.91296713
43444240702596,1.38271324,-5.4903729,-0.673247124,-8.55448253,-1.39103116,-1.96803376
43444241690833,1.38590903,-5.48611185,-0.676442917,-8.46589707,-1.50834705,-1.99915839
43444242679070,1.39017009,-5.47865499,-0.680703975,-8.38928262,-1.60411511,-2.00634099
43444243667308,1.39336588,-5.47013288,-0.683899768,-8.31985077,-1.62566293,-2.06140763
43444244656527,1.39975747,-5.45841497,-0.688160826,-8.2216885,-1.63045133,-2.18111771
43444245644764,1.40827945,-5.44456653,-0.694552412,-8.09958422,-1.5921441,-2.27688578
43444246633002,1.41786683,-5.4275223,-0.699878734,-7.95114371,-1.53707747,-2.33674082
43444247621239,1.42638895,-5.40941281,-0.703074461,-7.77876119,-1.45806881,-2.42053788
43444248609476,1.43491106,-5.38704225,-0.70520499,-7.65905111,-1.36708915,-2.4468741
43444249597713,1.44343318,-5.36360644,-0.706270255,-7.65905111,-1.33596453,-2.38223065
43444250586933,1.45195529,-5.34123588,-0.706270255,-7.69256993,-1.27371528,-2.26252057
43444251575170,1.45728162,-5.31993059,-0.704139726,-7.70214674,-1.17794722,-2.09732065
43444252563408,1.45941214,-5.2986253,-0.700943932,-7.69256993,-1.05105453,-1.93930334
43444253551645,1.45834688,-5.28158107,-0.696682941,-7.69017573,-0.943315454,-1.76452662
43444254539882,1.45515109,-5.26773264,-0.691356619,-7.67341632,-0.873883606,-1.60411511
43444255528119,1.45195529,-5.25707999,-0.684965032,-7.61116708,-0.799663354,-1.50116444
43444256517339,1.44662897,-5.24536208,-0.677508181,-7.53215842,-0.73501991,-1.47482822
43444257505576,1.44023738,-5.23257891,-0.668986066,-7.42681355,-0.672770667,-1.4437036
43444258493813,1.43278053,-5.21873047,-0.66046395,-7.3501991,-0.64882865,-1.40779058
43444259482051,1.42532368,-5.20381677,-0.651941835,-7.29034406,-0.632069238,-1.39581957
43444260470288,1.4189321,-5.18996833,-0.642354455,-7.11556733,-0.584185205,-1.34793553
43444261458525,1.41040998,-5.17185884,-0.632767075,-6.97191523,-0.557848987,-1.31202251
43444262447745,1.39975747,-5.15268408,-0.62424496,-6.91445439,-0.555454785,-1.3000515
43444263435982,1.38910482,-5.13137879,-0.61465758,-6.83544574,-0.53390697,-1.28089789
43444264424219,1.38058271,-5.10687771,-0.606135464,-6.76122549,-0.541089575,-1.24019646
43444265412457,1.37099533,-5.08237662,-0.598678613,-6.67742843,-0.560243188,-1.24498486
43444266400694,1.36140795,-5.05787554,-0.592287026,-6.59602557,-0.579396802,-1.29047469
43444267388931,1.35182057,-5.0323092,-0.584830175,-6.54574734,-0.603338818,-1.27610948
43444268378151,1.34010266,-5.00461232,-0.577373324,-6.50265171,-0.636857642,-1.24259066
43444269366388,1.33158055,-4.97798071,-0.570981738,-6.44040247,-0.665588062,-1.25935007
43444270354625,1.32518896,-4.9513491,-0.563524887,-6.38533583,-0.651222852,-1.27850369
43444271342862,1.31986264,-4.92258696,-0.557133267,-6.31590398,-0.627280835,-1.28808049
43444272331100,1.31560158,-4.89275955,-0.55074168,-6.23928953,-0.63446344,-1.28808049
43444273319337,1.30920999,-4.86399741,-0.543284829,-6.22253011,-0.658405457,-1.26413848
43444274308556,1.30281841,-4.83523528,-0.536893242,-6.17464608,-0.641646045,-1.22343705
43444275296794,1.29749208,-4.80647314,-0.532632185,-6.08845482,-0.646434448,-1.17076461
43444276285031,1.29323103,-4.777711,-0.526240598,-6.0597244,-0.670376465,-1.08696755
43444277273268,1.2879047,-4.74894886,-0.518783747,-6.01423457,-0.660799658,-1.00077629
43444278261505,1.28470891,-4.72125198,-0.511326896,-5.94719692,-0.687135876,-0.943315454
43444279249743,1.28151312,-4.69462037,-0.504935309,-5.9088897,-0.746990918,-0.871489404
43444280238962,1.27938259,-4.66798876,-0.498543723,-5.83706365,-0.758961926,-0.780509741
43444281227200,1.27512153,-4.64135715,-0.492152136,-5.74608398,-0.761356128,-0.718260498
43444282215437,1.27192574,-4.61685607,-0.484695285,-5.66468113,-0.782903943,-0.67755907
43444283203674,1.27086047,-4.59342025,-0.478303698,-5.59285508,-0.809240161,-0.627280835
43444284191911,1.27192574,-4.56891917,-0.470846847,-5.53539424,-0.849941589,-0.555454785
43444285180149,1.272991,-4.54441808,-0.463389996,-5.47075079,-0.873883606,-0.488417139
43444286169368,1.272991,-4.519917,-0.45699841,-5.39174214,-0.888248816,-0.430956299
43444287157605,1.27405627,-4.49541592,-0.451672088,-5.31991609,-0.893037219,-0.318428821
43444288145843,1.27405627,-4.46878431,-0.445280501,-5.26963785,-0.905008228,-0.205901343
43444289134080,1.27405627,-4.4432177,-0.438888914,-5.21457122,-0.905008228,-0.107739075
43444290122317,1.27405627,-4.41552082,-0.432497328,-5.14513937,-0.916979236,0.0311246216
43444291111537,1.27192574,-4.38995447,-0.427171006,-5.07331332,-0.926556042,0.162805713
43444292099774,1.27086047,-4.36332286,-0.422909948,-4.97754525,-0.895431421,0.260967981
43444293088011,1.26766468,-4.33882178,-0.417583626,-4.9081134,-0.902614026,0.337582434
43444294076249,1.26446889,-4.31538596,-0.412257303,-4.85544097,-0.912190833,0.452504114
43444295064486,1.26233836,-4.29301541,-0.405865717,-4.78600912,-0.888248816,0.596156213
43444296052723,1.25914256,-4.27064486,-0.39947413,-4.67587584,-0.845153186,0.699106885
43444297041943,1.25701203,-4.24614378,-0.392017279,-4.56095416,-0.802057556,0.761356128
43444298030180,1.25594677,-4.22483849,-0.384560428,-4.4723687,-0.76375033,0.837970581
43444299018417,1.25594677,-4.20672899,-0.376038313,-4.37899484,-0.70628949,0.928950244
43444300006654,1.25594677,-4.18648897,-0.367516197,-4.30956299,-0.644040247,0.991199487
43444300994892,1.25488151,-4.16518368,-0.358994082,-4.24491954,-0.59136781,1.05584293
43444301983129,1.25488151,-4.14387839,-0.348341471,-4.1826703,-0.555454785,1.13963999
43444302972349,1.25275098,-4.12470363,-0.338754091,-4.10845005,-0.536301172,1.21864865
43444303960586,1.25168571,-4.10552887,-0.330231975,-4.04859501,-0.536301172,1.2928689
43444304948823,1.24848992,-4.08635411,-0.320644595,-4.00310518,-0.512359155,1.38145436
43444305937060,1.24529413,-4.06504882,-0.313187744,-3.95761534,-0.464475122,1.48440503
43444306925298,1.24209833,-4.04267827,-0.305730893,-3.87621249,-0.409408484,1.57538469
43444307913535,1.23890254,-4.02030772,-0.297208778,-3.78283862,-0.395043274,1.65439335
43444308902754,1.23357622,-3.99900243,-0.288686662,-3.72777198,-0.385466467,1.70945999
43444309890992,1.22931516,-3.97769714,-0.282295076,-3.66312854,-0.339976636,1.74537301
43444310879229,1.2250541,-3.95745711,-0.276968737,-3.58890829,-0.282515796,1.77410343
43444311867466,1.2250541,-3.93721709,-0.269511886,-3.52426484,-0.232237561,1.80043965
43444312855703,1.22398884,-3.91697706,-0.263120299,-3.46919821,-0.191536133,1.85550629
43444313843941,1.22185831,-3.89460651,-0.256728712,-3.41891997,-0.160411511,1.88902511
43444314833160,1.21866251,-3.87330122,-0.249271861,-3.39737216,-0.146046301,1.90817872
43444315821398,1.21546672,-3.85199593,-0.242880275,-3.35427653,-0.136469495,1.94409175
43444316809635,1.21333619,-3.82962538,-0.235423424,-3.30639249,-0.126892688,1.98239897
43444317797872,1.21333619,-3.80725483,-0.227966573,-3.27526787,-0.11492168,2.0159178
43444318786109,1.21333619,-3.78594954,-0.221574986,-3.23456644,-0.117315881,2.0135236
43444319774347,1.21120566,-3.76464425,-0.215183399,-3.21301863,-0.12928689,2.03028301
43444320763566,1.2101404,-3.74014317,-0.209857077,-3.20823022,-0.122104285,2.07337864
43444321751803,1.20800987,-3.71564209,-0.204530755,-3.18668241,-0.124498486,2.08534965
43444322740041,1.20694461,-3.69220627,-0.199204433,-3.1723172,-0.160411511,2.10689746
43444323728278,1.20694461,-3.66770519,-0.194943375,-3.16513459,-0.167594116,2.14759889
43444324716515,1.20587934,-3.64426937,-0.190682317,-3.13161577,-0.160411511,2.18111771
43444325704752,1.20587934,-3.62189882,-0.18642126,-3.08612594,-0.181959326,2.21942494
43444326693972,1.20694461,-3.59952826,-0.182160202,-3.06457812,-0.198718738,2.26012637
43444327682209,1.20481408,-3.57715771,-0.178964409,-3.07176073,-0.213083948,2.33195242
43444328670446,1.20268355,-3.55265663,-0.175768615,-3.07894333,-0.239420166,2.42293208
43444329658684,1.20055302,-3.52922081,-0.172572839,-3.04781871,-0.256179578,2.51391174
43444330646921,1.19842249,-3.50685026,-0.171507574,-2.99993468,-0.270544788,2.64080443
43444331635158,1.1952267,-3.48341444,-0.169377045,-2.99514628,-0.268150586,2.7413609
43444332624378,1.18990038,-3.45997862,-0.167246516,-2.99514628,-0.292092603,2.83712897
43444333612615,1.18244352,-3.4397386,-0.165115988,-2.96402166,-0.335188232,2.93289703
43444334600852,1.17605194,-3.42056384,-0.162985459,-2.93050283,-0.363918652,3.00951149
43444335589090,1.16966035,-3.40032381,-0.161920194,-2.92092603,-0.366312854,3.08133754
43444336577327,1.16326876,-3.37795326,-0.16085493,-2.89219561,-0.385466467,3.13879838
43444337565564,1.15581191,-3.35558271,-0.16085493,-2.85628258,-0.4333505,3.21780703
43444338554784,1.1472898,-3.33321215,-0.158724401,-2.82515796,-0.459686719,3.30399829
43444339543021,1.13983295,-3.31297213,-0.156593872,-2.80361014,-0.478840332,3.39018955
43444340531258,1.13024557,-3.29273211,-0.154463343,-2.76769712,-0.493205542,3.4596214
43444341519495,1.11959292,-3.27249208,-0.15126755,-2.69587107,-0.483628735,3.49553442
43444342507733,1.11000548,-3.25118679,-0.148071757,-2.62404502,-0.488417139,3.54820686
43444343495970,1.10148336,-3.22881624,-0.143810699,-2.57855519,-0.478840332,3.6008793
43444344485190,1.09189598,-3.20644569,-0.140614906,-2.54503636,-0.47644613,3.62003291
43444345473427,1.0823086,-3.18407513,-0.138484368,-2.48039292,-0.517147559,3.64158073
43444346461664,1.07272122,-3.16170458,-0.133158046,-2.42053788,-0.512359155,3.68946476
43444347449901,1.06419911,-3.13826876,-0.127831724,-2.38941326,-0.507570752,3.73734879
43444348438139,1.05461173,-3.11483294,-0.121440137,-2.34392343,-0.502782349,3.78044442
43444349426376,1.04502435,-3.09033186,-0.116113815,-2.27209738,-0.49081134,3.81156904
43444350415595,1.03650223,-3.06689605,-0.109722229,-2.24097275,-0.517147559,3.84029946
43444351403833,1.02691485,-3.04239496,-0.102265378,-2.25054956,-0.526724365,3.87621249
43444352392070,1.01732747,-3.01682862,-0.0948085265,-2.22181914,-0.512359155,3.90733711
43444353380307,1.00880535,-2.99445806,-0.0873516838,-2.18351191,-0.512359155,3.93127913
43444354368544,1.0013485,-2.97208751,-0.0809600971,-2.1643583,-0.538695374,3.95761534
43444355356782,0.992826388,-2.94865169,-0.0766990394,-2.14520469,-0.538695374,3.97916316
43444356346001,0.984304272,-2.92628114,-0.0724379817,-2.10929166,-0.509964954,4.00310518
43444357334239,0.976847421,-2.90284532,-0.0671116553,-2.07098444,-0.481234534,4.0318356
43444358322476,0.970455835,-2.8794095,-0.0628505976,-2.04943662,-0.488417139,4.06535442
43444359310713,0.964064248,-2.85597369,-0.0585895398,-2.0135236,-0.497993945,4.12999786
43444360298950,0.956607397,-2.8346684,-0.0553937465,-1.96324536,-0.469263525,4.15633408
43444361287188,0.95021581,-2.81229784,-0.0521979532,-1.92254393,-0.466869324,4.19703551
43444362276407,0.945954753,-2.78886229,-0.0490021599,-1.8794483,-0.442927307,4.28322677
43444363264644,0.939563166,-2.767557,-0.0458063666,-1.84114108,-0.409408484,4.35984122
43444364252882,0.933171579,-2.74625172,-0.0447411022,-1.79804545,-0.392649072,4.41490786
43444365241119,0.926779993,-2.72707696,-0.041545313,-1.7262194,-0.349553442,4.43884988
43444366229356,0.919323142,-2.70577167,-0.0383495197,-1.69509478,-0.318428821,4.49870492
43444367218576,0.91399682,-2.68446638,-0.0351537264,-1.65918175,-0.299275208,4.56334836
43444368206813,0.907605233,-2.66316109,-0.031957931,-1.59453831,-0.263362183,4.59207878
43444369195050,0.900148382,-2.6418558,-0.0308926666,-1.54904847,-0.241814368,4.63517441
43444370183288,0.89482206,-2.62161578,-0.0287621377,-1.50116444,-0.237025964,4.67108744
43444371171525,0.888430473,-2.60244102,-0.0255663444,-1.47243402,-0.210689746,4.70700046
43444372159762,0.879908358,-2.58113573,-0.0234358155,-1.40779058,-0.165199915,4.73812509
43444373148982,0.873516771,-2.5608957,-0.0213052887,-1.32399352,-0.119710083,4.75009609
43444374137219,0.86605992,-2.53959042,-0.0191747598,-1.3048399,-0.107739075,4.78840332
43444375125456,0.859668333,-2.51721986,-0.0170442299,-1.26892688,-0.0981622681,4.81952794
43444376113693,0.853276747,-2.49484931,-0.0149137011,-1.20667764,-0.0526724365,4.84346996
43444377101931,0.845819896,-2.47354402,-0.0127831722,-1.16837041,-0.00957680664,4.88656559
43444378090168,0.839428309,-2.45223873,-0.0106526444,-1.13963999,0.0215478149,4.92247861
43444379079387,0.833036722,-2.43199871,-0.00958737992,-1.09893856,0.0478840332,4.96796844
43444380067625,0.825579871,-2.41282395,-0.00745685053,-1.07260234,0.0694318481,5.02782349
43444381055862,0.81812302,-2.39364919,-0.00532632218,-1.03668932,0.0861912598,5.07091912
43444382044099,0.809600905,-2.37447443,-0.00319579305,-1.0127473,0.122104285,5.12359155
43444383032337,0.802144054,-2.35316914,-0.00213052874,-0.972045874,0.153228906,5.1858408
43444384020574,0.793621938,-2.33292911,0.00106526437,-0.909796631,0.160411511,5.24569584
43444385009793,0.785099823,-2.31481962,0.00319579305,-0.878672009,0.189141931,5.29357987
43444385998031,0.778708236,-2.29777539,0.00532632218,-0.823605371,0.217872351,5.3366755
43444386986268,0.770186121,-2.27860063,0.00745685053,-0.775721338,0.256179578,5.36301172
43444387974505,0.76272927,-2.26049113,0.0106526444,-0.711077893,0.299275208,5.37019432
43444388962742,0.755272419,-2.24238164,0.0138484366,-0.624886633,0.301669409,5.37737693
43444389950980,0.746750303,-2.22320674,0.0181094954,-0.565031592,0.308852014,5.41328995
43444390940199,0.738228188,-2.20296672,0.0223705511,-0.514753357,0.335188232,5.43244357
43444391928436,0.730771337,-2.18379196,0.0266316088,-0.46208092,0.351947644,5.43723197
43444392916674,0.725445014,-2.16355194,0.0308926666,-0.418985291,0.361524451,5.485116
43444393904911,0.719053428,-2.14331191,0.0351537264,-0.385466467,0.359130249,5.50426962
43444394893148,0.713727106,-2.12413715,0.041545313,-0.325611426,0.371101257,5.49948121
43444395881385,0.707335519,-2.10496239,0.0479368955,-0.296881006,0.371101257,5.50666382
43444396870605,0.700943932,-2.0836571,0.0532632176,-0.280121594,0.339976636,5.54018264
43444397858842,0.695617677,-2.06235181,0.0596548043,-0.244208569,0.308852014,5.54257684
43444398847080,0.690291355,-2.04211179,0.063915862,-0.294486804,0.237025964,5.44441458
43444399835317,0.684965032,-2.02187177,0.0671116553,-0.344765039,0.160411511,5.44202037
43444400823554,0.677508181,-1.99843595,0.0703074528,-0.349553442,0.122104285,5.50905802
43444401811791,0.672181859,-1.9760654,0.0713727172,-0.378283862,0.0957680664,5.52821163
43444402801011,0.665790273,-1.95369484,0.0724379817,-0.387860669,0.0933738647,5.55694205
43444403789248,0.661529215,-1.93132429,0.0745685105,-0.366312854,0.102950671,5.61679709
43444404777485,0.655137628,-1.910019,0.075633775,-0.328005627,0.124498486,5.68862314
43444405765723,0.647680777,-1.88977898,0.0766990394,-0.287304199,0.126892688,5.73171877
43444406753960,0.640223926,-1.86953895,0.0788295683,-0.282515796,0.107739075,5.7652376
43444407742197,0.632767075,-1.85036419,0.0809600971,-0.282515796,0.11492168,5.79636222
43444408731417,0.625310224,-1.83118943,0.0820253616,-0.253785376,0.0981622681,5.80833323
43444409719654,0.619983902,-1.81094941,0.0820253616,-0.227449158,0.10055647,5.82988104
43444410707891,0.615722844,-1.79070938,0.0820253616,-0.15801731,0.122104285,5.87297667
43444411696129,0.611461786,-1.77046936,0.083090626,-0.0742202515,0.117315881,5.86579407
43444412684366,0.6050702,-1.74916407,0.0841558904,-0.0502782349,0.105344873,5.87776508
43444413672603,0.598678613,-1.72785878,0.0862864193,-0.0263362183,0.0933738647,5.9184665
43444414661823,0.593352291,-1.70655349,0.0884169399,0.00478840332,0.10055647,5.94719692
43444415650060,0.589091233,-1.68418294,0.0926779976,0.0335188232,0.131681091,5.97592734
43444416638297,0.584830175,-1.66287765,0.0948085265,0.0670376465,0.12928689,5.99508096
43444417626534,0.580569118,-1.64157236,0.0969390554,0.0694318481,0.107739075,5.99986936
43444418614772,0.57630806,-1.61920181,0.0990695842,0.0885854614,0.122104285,5.99747516
43444419603009,0.570981738,-1.59576599,0.102265378,0.105344873,0.122104285,5.97113894
43444420592229,0.565655416,-1.57339544,0.105461171,0.0885854614,0.102950671,5.96874474
43444421580466,0.560329093,-1.55102489,0.108656964,0.0909796631,0.0837970581,5.99508096
43444422568703,0.555002738,-1.52865433,0.111852757,0.0885854614,0.0598550415,6.01184037
43444423556940,0.55074168,-1.50521851,0.115048551,0.10055647,0.0742202515,6.04057079
43444424545178,0.546480622,-1.48284796,0.11717908,0.102950671,0.0861912598,6.08127222
43444425533415,0.540089036,-1.46047741,0.119309609,0.0861912598,0.0598550415,6.13873306
43444426522634,0.534762714,-1.43810686,0.120374873,0.0814028564,0.0454898315,6.2033765
43444427510872,0.529436391,-1.41467104,0.121440137,0.0646434448,0.0526724365,6.25604894
43444428499109,0.52197954,-1.39123535,0.122505402,0.0646434448,0.0622492432,6.29914457
43444429487346,0.514522689,-1.36993006,0.123570666,0.102950671,0.0622492432,6.32308658
43444430475583,0.508131103,-1.34969004,0.123570666,0.126892688,0.0622492432,6.33745179
43444431463821,0.502804781,-1.32838475,0.124635931,0.122104285,0.0694318481,6.37097062
43444432453040,0.498543723,-1.30707946,0.125701195,0.112527478,0.0646434448,6.42124885
43444433441278,0.492152136,-1.28470891,0.125701195,0.131681091,0.0383072266,6.46913289
43444434429515,0.483630021,-1.26446889,0.124635931,0.15801731,0.00718260498,6.4858923
43444435417752,0.475107905,-1.24422886,0.124635931,0.162805713,0.0287304199,6.50983431
43444436405989,0.467651054,-1.2250541,0.124635931,0.169988318,0.0502782349,6.54095894
43444437394227,0.461259468,-1.20587934,0.124635931,0.177170923,0.0430956299,6.56490095
43444438383446,0.455933145,-1.18776985,0.123570666,0.181959326,0.0215478149,6.56250675
43444439371683,0.449541559,-1.16752982,0.121440137,0.112527478,-0.0790086548,6.45476768
43444440359921,0.444215237,-1.1472898,0.120374873,0.0718260498,-0.131681091,6.41406625
43444441348158,0.438888914,-1.12704977,0.119309609,0.1436521,-0.110133276,6.44519087
43444442336395,0.433562592,-1.10680968,0.116113815,0.196324536,-0.112527478,6.44758507
43444443324632,0.429301534,-1.08443913,0.111852757,0.253785376,-0.0742202515,6.4930749
43444444313852,0.425040477,-1.06206858,0.110787493,0.299275208,-0.0383072266,6.52898793
43444445302089,0.421844683,-1.04182855,0.110787493,0.339976636,-0.0311246216,6.55771835
43444446290326,0.417583626,-1.02158853,0.110787493,0.421379492,-0.01436521,6.59123717
43444447278564,0.412257303,-1.00028324,0.109722229,0.471657727,-0.0550666382,6.59602557
43444448266801,0.406930981,-0.97897795,0.108656964,0.464475122,-0.10055647,6.57926616
43444449256021,0.402669924,-0.956607397,0.108656964,0.47644613,-0.0814028564,6.6295444
43444450244258,0.39947413,-0.934236844,0.108656964,0.497993945,-0.0550666382,6.65827482
43444451232495,0.397343601,-0.912931555,0.1075917,0.497993945,-0.0383072266,6.66785162
43444452220732,0.393082544,-0.892691531,0.105461171,0.531512769,-0.0287304199,6.71094725
43444453208970,0.388821486,-0.872451507,0.103330642,0.598550415,0.00957680664,6.7803791
43444454197207,0.383495164,-0.853276747,0.102265378,0.651222852,0.0454898315,6.83305154
43444455186426,0.377103577,-0.834101987,0.100134849,0.672770667,0.0287304199,6.83305154
43444456174664,0.372842519,-0.815992491,0.0990695842,0.70628949,0.0263362183,6.87135876
43444457162901,0.368581462,-0.797882996,0.0980043198,0.758961926,0.0359130249,6.84502255
43444458151138,0.363255139,-0.777642972,0.0969390554,0.828393774,0.0526724365,6.84502255
43444459139375,0.358994082,-0.756337683,0.0948085265,0.933738647,0.0837970581,6.96233843
43444460127613,0.354733024,-0.735032394,0.0916127332,1.04626613,0.12928689,7.0700775
43444461116832,0.350471966,-0.71479237,0.0916127332,1.11809218,0.165199915,7.15148036
43444462105070,0.346210942,-0.694552412,0.0926779976,1.18991823,0.210689746,7.2113354
43444463093307,0.34088462,-0.674312388,0.0926779976,1.29047469,0.248996973,7.22809481
43444464081544,0.335558297,-0.657268157,0.0926779976,1.36948335,0.248996973,7.2137296
43444465069781,0.330231975,-0.640223926,0.0926779976,1.42454999,0.265756384,7.2161238
43444466058019,0.322775124,-0.619983902,0.0958737909,1.49637604,0.306457812,7.24006582
43444467047238,0.315318273,-0.599743877,0.0980043198,1.59693251,0.328005627,7.23048901
43444468035475,0.309991951,-0.577373324,0.0980043198,1.66157595,0.337582434,7.2113354
43444469023713,0.303600364,-0.555002738,0.0990695842,1.68551797,0.361524451,7.22330641
43444470011950,0.296143513,-0.534762714,0.101200113,1.76931503,0.385466467,7.19457599
43444471000187,0.289751927,-0.514522689,0.103330642,1.85311208,0.414196887,7.10838473
43444471988424,0.284425604,-0.492152136,0.105461171,1.89620771,0.395043274,7.05810649
43444472977644,0.279099266,-0.467651054,0.106526435,1.95845696,0.359130249,7.04134708
43444473965881,0.272707679,-0.441019443,0.106526435,2.04704242,0.368707056,7.00543406
43444474954119,0.265250828,-0.413322568,0.106526435,2.10689746,0.383072266,6.95755002
43444475942356,0.257793977,-0.383495164,0.106526435,2.15238729,0.368707056,6.9288196
43444476930593,0.250337126,-0.354733024,0.106526435,2.20266553,0.332794031,6.9288196
43444477918830,0.24181501,-0.325970917,0.1075917,2.26970317,0.342370837,6.91445439
43444478908050,0.234358159,-0.296143513,0.109722229,2.37504805,0.368707056,6.86657036
43444479896287,0.227966573,-0.265250828,0.111852757,2.42053788,0.385466467,6.78756171
43444480884524,0.220509722,-0.234358159,0.113983286,2.41096107,0.383072266,6.73967767
43444481872762,0.214118135,-0.203465491,0.115048551,2.4588451,0.375889661,6.67264003
43444482860999,0.208791813,-0.172572839,0.11717908,2.51151754,0.383072266,6.59363137
43444483849236,0.20559602,-0.14168017,0.120374873,2.54264216,0.385466467,6.52659373
43444484838456,0.202400226,-0.111852757,0.125701195,2.56658418,0.416591089,6.43082566
43444485826693,0.198139168,-0.0809600971,0.128896988,2.60728561,0.474051929,6.38294163
43444486814930,0.193878111,-0.0479368955,0.131027517,2.64319863,0.526724365,6.30872137
43444487803168,0.189617053,-0.0127831722,0.133158046,2.63841023,0.541089575,6.21295331
43444488791405,0.18642126,0.0213052887,0.136353839,2.65277544,0.54827218,6.16985768
43444489779642,0.184290731,0.0553937465,0.140614906,2.67911166,0.574608398,6.08366642
43444490768862,0.183225466,0.0873516838,0.143810699,2.69826527,0.593762012,5.9184665
43444491757099,0.180029673,0.122505402,0.147006492,2.70544788,0.600944617,5.72693037
43444492745336,0.17683388,0.16085493,0.148071757,2.74854351,0.608127222,5.63595071
43444493733573,0.174703368,0.201334962,0.152332814,2.81079275,0.651222852,5.60722029
43444494721811,0.173638103,0.242880275,0.156593872,2.82515796,0.689530078,5.49948121
43444495710048,0.174703368,0.286556133,0.159789665,2.79882174,0.67755907,5.45399138
43444496699267,0.173638103,0.329166711,0.161920194,2.80600435,0.7206547,5.51384642
43444497687505,0.171507574,0.371777255,0.165115988,2.86107098,0.799663354,5.53539424
43444498675742,0.17044231,0.416518361,0.168311781,2.91613762,0.890643018,5.51863483
43444499663979,0.169377045,0.461259468,0.172572839,2.93050283,0.948103857,5.56412466
43444500652216,0.166181252,0.502804781,0.178964409,2.91134922,0.955286462,5.57130726
43444501640454,0.162985459,0.544350094,0.185355995,2.93050283,0.988805286,5.49229861
43444502629673,0.161920194,0.58589544,0.191747582,2.93289703,0.986411084,5.52821163
43444503617911,0.159789665,0.627440753,0.197073904,2.90177241,1.0031705,5.58327827
43444504606148,0.155528608,0.67005133,0.202400226,2.86346519,1.0031705,5.36540592
43444505594385,0.152332814,0.71479237,0.206661284,2.79403334,0.952892261,5.26245525
43444506582622,0.149137021,0.760598741,0.210922342,2.7413609,0.964863269,5.35822332
43444507570860,0.144875963,0.805339847,0.211987606,2.7437551,1.05823713,5.31512769
43444508560079,0.14168017,0.849015689,0.214118135,2.70784208,1.13724579,5.27921466
43444509548316,0.137419104,0.893756795,0.216248664,2.62883342,1.14442839,5.3414639
43444510536554,0.131027517,0.938497902,0.219444457,2.58334359,1.12527478,5.38695374
43444511524791,0.12676646,0.980043215,0.22264025,2.55461317,1.151611,5.34864651
43444512513028,0.121440137,1.019458,0.224770779,2.53306536,1.24019646,5.23372483
43444513502248,0.116113815,1.05993805,0.227966573,2.51391174,1.25216747,5.12598575
43444514490485,0.109722229,1.10254862,0.231162366,2.50433494,1.16118781,5.13077416
43444515478722,0.104395906,1.14622453,0.235423424,2.48518132,1.08217915,5.15950458
43444516466960,0.100134849,1.18776985,0.238619217,2.49236393,1.07260234,5.11162054
43444517455197,0.0958737909,1.22931516,0.240749746,2.49236393,1.06063134,5.03261189
43444518443434,0.0926779976,1.27192574,0.243945539,2.47081611,1.0079589,4.99669886
43444519432654,0.0884169399,1.31560158,0.246076068,2.46602771,0.976834277,5.01345828
43444520420891,0.0841558904,1.35927742,0.248206597,2.43969149,0.981622681,5.02303508
43444521409128,0.0798948327,1.40188786,0.25140239,2.41574948,0.957680664,4.99430466
43444522397365,0.0745685105,1.44449844,0.254598184,2.38223065,0.921767639,4.97275685
43444523385603,0.0681769197,1.48710902,0.258859241,2.34871183,0.924161841,4.95360323
43444524373840,0.0628505976,1.5265238,0.263120299,2.3056162,0.933738647,4.96318004
43444525363060,0.0575242754,1.56806912,0.267381357,2.25773217,0.924161841,4.99191046
43444526351297,0.0543284821,1.61067969,0.271642415,2.22900175,0.912190833,4.99430466
43444527339534,0.0490021599,1.65222501,0.276968737,2.23139595,0.940921252,4.98712206
43444528327771,0.0436758419,1.69270506,0.281229811,2.20266553,0.962469067,4.93684382
43444529316009,0.0383495197,1.7331851,0.287621398,2.10929166,0.938527051,4.91529601
43444530304246,0.0330231954,1.77046936,0.295078249,2.0207062,0.948103857,4.94163223
43444531293465,0.0276968733,1.80988414,0.300404571,1.92733234,0.967257471,4.93205542
43444532281703,0.0202400243,1.8471684,0.304665629,1.86029469,0.914585034,4.94881483
43444533269940,0.0117179078,1.88551792,0.308926686,1.82677587,0.859518396,4.91769021
43444534258177,0.00532632218,1.92173691,0.311057215,1.81959326,0.847547388,4.7548845
43444535246414,0,1.96115169,0.314253009,1.81959326,0.849941589,4.63038601
43444536234652,-0.00532632218,2.00269701,0.318514066,1.79086284,0.823605371,4.618415
43444537223871,-0.0106526444,2.04317706,0.32170986,1.78128604,0.811634363,4.59926139
43444538212109,-0.0149137011,2.0868529,0.325970917,1.75016141,0.821211169,4.57771357
43444539200346,-0.0191747598,2.12839821,0.33129724,1.66875856,0.770932935,4.6088382
43444540188583,-0.0234358155,2.16994352,0.336623562,1.61129772,0.742202515,4.63517441
43444541176820,-0.0276968733,2.20935831,0.34088462,1.57538469,0.758961926,4.65672223
43444542165058,-0.0308926666,2.24877322,0.345145677,1.52510646,0.746990918,4.70221206
43444543154277,-0.0351537264,2.28712274,0.350471966,1.46764562,0.713472095,4.71657727
43444544142514,-0.0394147841,2.32547226,0.354733024,1.38384856,0.67755907,4.69502946
43444545130752,-0.0426105774,2.36488705,0.358994082,1.29047469,0.667982263,4.70700046
43444546118989,-0.0458063666,2.4021713,0.363255139,1.21625444,0.658405457,4.69981786
43444547107226,-0.0490021599,2.43839029,0.367516197,1.12048638,0.639251843,4.68545265
43444548095463,-0.0521979532,2.47247876,0.372842519,0.986411084,0.689530078,4.73094248
43444549084683,-0.0553937465,2.50763248,0.377103577,0.823605371,0.708683691,4.79798013
43444550072920,-0.0607200687,2.53852515,0.379234106,0.73501991,0.667982263,4.84825836
43444551061157,-0.0660463909,2.56728729,0.378168842,0.727837305,0.665588062,4.79558593
43444552049395,-0.0703074528,2.5971147,0.378168842,0.723048901,0.69192428,4.67827004
43444553037632,-0.075633775,2.62907263,0.379234106,0.70628949,0.651222852,4.64475122
43444554025869,-0.0788295683,2.66316109,0.38029937,0.660799658,0.579396802,4.68545265
43444555015089,-0.0820253616,2.69618429,0.383495164,0.632069238,0.572214197,4.66629904
43444556003326,-0.0862864193,2.73240328,0.385625693,0.622492432,0.56263739,4.60644399
43444556991563,-0.0884169399,2.76862227,0.386690957,0.555454785,0.507570752,4.58968458
43444557979801,-0.0894822043,2.80377573,0.38988675,0.474051929,0.457292517,4.60404979
43444558968038,-0.0916127332,2.83786419,0.392017279,0.402225879,0.409408484,4.66629904
43444559956275,-0.093743262,2.87088739,0.394147808,0.335188232,0.383072266,4.74530769
43444560945495,-0.0948085265,2.90497585,0.397343601,0.253785376,0.366312854,4.77403811
43444561933732,-0.0980043198,2.93799905,0.400539395,0.17238252,0.342370837,4.79558593
43444562921969,-0.101200113,2.96889172,0.402669924,0.0837970581,0.313640417,4.85065256
43444563910206,-0.104395906,2.99978439,0.404800452,-0.0287304199,0.313640417,4.89135399
43444564898444,-0.106526435,3.02854653,0.404800452,-0.150834705,0.361524451,4.9057192
43444565886681,-0.108656964,3.05411287,0.404800452,-0.313640417,0.361524451,4.96078584
43444566875901,-0.112918022,3.07861395,0.402669924,-0.430956299,0.320823022,5.03500609
43444567864138,-0.118244344,3.10098451,0.398408866,-0.50517655,0.296881006,5.0445829
43444568852375,-0.122505402,3.12335506,0.393082544,-0.569819995,0.299275208,4.99430466
43444569840612,-0.127831724,3.14572561,0.387756221,-0.598550415,0.244208569,4.95839164
43444570828850,-0.132092782,3.16809617,0.382429899,-0.608127222,0.146046301,4.94642063
43444571817087,-0.135288575,3.19366251,0.376038313,-0.538695374,0.0837970581,4.88895979
43444572806306,-0.138484368,3.22135939,0.368581462,-0.46208092,0.0239420166,4.80516273
43444573794544,-0.138484368,3.25118679,0.363255139,-0.452504114,-0.0574608398,4.75009609
43444574782781,-0.136353839,3.2810142,0.360059346,-0.445321509,-0.155623108,4.72615408
43444575771018,-0.134223311,3.31297213,0.356863553,-0.452504114,-0.237025964,4.72615408
43444576759255,-0.132092782,3.3438648,0.353667759,-0.474051929,-0.311246216,4.74770189
43444577747493,-0.128896988,3.37582273,0.351537231,-0.53390697,-0.399831677,4.80037433
43444578736712,-0.125701195,3.4067154,0.349406735,-0.63446344,-0.474051929,4.84586416
43444579724950,-0.122505402,3.4397386,0.347276206,-0.713472095,-0.538695374,4.87220038
43444580713187,-0.118244344,3.46850074,0.344080413,-0.773327136,-0.632069238,4.8961424
43444581701424,-0.112918022,3.49619761,0.341949884,-0.857124194,-0.756567725,4.89135399
43444582689661,-0.1075917,3.52282922,0.338754091,-0.964863269,-0.847547388,4.8961424
43444583677899,-0.102265378,3.54839557,0.336623562,-1.05823713,-0.907402429,4.92008441
43444584667118,-0.0958737909,3.57076612,0.332362504,-1.1540052,-0.972045874,4.91290181
43444585655355,-0.0873516838,3.59313668,0.327036182,-1.24019646,-1.02711251,4.9081134
43444586643593,-0.0809600971,3.61550723,0.320644595,-1.31441671,-1.05823713,4.92247861
43444587631830,-0.0745685105,3.63574725,0.314253009,-1.40300217,-1.11090957,4.93205542
43444588620067,-0.0681769197,3.65705254,0.307861422,-1.48919343,-1.17315881,4.95599744
43444589609287,-0.0617853331,3.67835783,0.300404571,-1.59932671,-1.22343705,4.99191046
43444590597524,-0.0585895398,3.69859786,0.29294772,-1.71903679,-1.25935007,4.98472786
43444591585761,-0.0543284821,3.71670735,0.285490869,-1.83395847,-1.28329209,4.98472786
43444592573999,-0.0511326888,3.73162105,0.275903472,-1.95366855,-1.31441671,4.97515105
43444593562236,-0.0490021599,3.74546949,0.265250828,-2.11168586,-1.13724579,4.97754525
43444594550473,-0.0479368955,3.7571874,0.254598184,-2.32955822,-1.02950671,4.9105076
43444595539693,-0.0500674243,3.76570952,0.24181501,-2.43729729,-1.17794722,4.79319172
43444596527930,-0.0521979532,3.77316637,0.225836044,-2.23379015,-1.27132108,4.48194551
43444597516167,-0.0500674243,3.7870148,0.208791813,-2.06380183,-1.27610948,3.98395156
43444598504404,-0.0458063666,3.81151589,0.191747582,-2.03746561,-1.36948335,3.84029946
43444599492642,-0.0404800486,3.84027803,0.180029673,-2.03746561,-1.54186587,3.92409652
43444600480879,-0.0330231954,3.87117069,0.169377045,-1.99915839,-1.51792385,3.79241543
43444601470098,-0.0234358155,3.90206336,0.16085493,-1.95366855,-1.42454999,3.57933148
43444602458336,-0.00958737992,3.93295603,0.153398079,-2.03507141,-1.46046301,3.54581266
43444603446573,0.00319579305,3.96171817,0.149137021,-2.1595699,-1.49398184,3.58172568
43444604434810,0.0149137011,3.98728452,0.145941228,-2.26012637,-1.45567461,3.66312854
43444605423048,0.0223705511,4.01391613,0.139549633,-2.36547124,-1.41018478,3.77326182
43444606411285,0.0330231954,4.041613,0.134223311,-2.54982477,-1.40779058,3.78523282
43444607400504,0.0436758419,4.06504882,0.131027517,-2.72460149,-1.4413094,3.73495459
43444608388742,0.0511326888,4.08528885,0.128896988,-2.84431157,-1.46285721,3.72777198
43444609376979,0.0585895398,4.10339834,0.124635931,-2.92571443,-1.47243402,3.73734879
43444610365216,0.0660463909,4.12150784,0.120374873,-3.05500132,-1.448492,3.72058938
43444611353453,0.075633775,4.13855207,0.116113815,-3.18428821,-1.37666595,3.65115753
43444612341691,0.0841558904,4.1555963,0.110787493,-3.26808527,-1.31920511,3.6104561
43444613330910,0.0905474687,4.17157527,0.104395906,-3.36864174,-1.2928689,3.64158073
43444614319147,0.0980043198,4.1886195,0.0980043198,-3.50271703,-1.25216747,3.66073434
43444615307385,0.103330642,4.20566373,0.0916127332,-3.63918652,-1.19231243,3.62003291
43444616295622,0.106526435,4.21951216,0.0852211549,-3.7469256,-1.13963999,3.58651409
43444617283859,0.109722229,4.2333606,0.0766990394,-3.82832845,-1.08936176,3.6032735
43444618272096,0.113983286,4.2482743,0.0681769197,-3.90733711,-1.06541974,3.58172568
43444619261316,0.11717908,4.26212274,0.0617853331,-3.97916316,-1.05344873,3.50989963
43444620249553,0.120374873,4.27810171,0.0553937465,-4.04620081,-1.01992991,3.42849678
43444621237791,0.123570666,4.29301541,0.0490021599,-4.11084425,-0.964863269,3.35667073
43444622226028,0.125701195,4.30579858,0.041545313,-4.15154568,-0.900219824,3.3135751
43444623214265,0.129962253,4.32071229,0.0330231954,-4.19224711,-0.854729993,3.27047947
43444624202502,0.134223311,4.34095231,0.0245010799,-4.25210215,-0.828393774,3.20344182
43444625191722,0.138484368,4.36119233,0.0170442299,-4.30238038,-0.766144531,3.1675288
43444626179959,0.14168017,4.37930183,0.00852211497,-4.37899484,-0.694318481,3.18907661
43444627168196,0.142745434,4.39634606,0,-4.45321509,-0.644040247,3.25611426
43444628156434,0.144875963,4.41445556,-0.00745685053,-4.51307013,-0.610521423,3.32794031
43444629144671,0.147006492,4.42936926,-0.0149137011,-4.58250198,-0.560243188,3.38300695
43444630132908,0.150202285,4.4432177,-0.0213052887,-4.6112324,-0.509964954,3.41413157
43444631122128,0.152332814,4.45600087,-0.0276968733,-4.65672223,-0.536301172,3.42370837
43444632110365,0.153398079,4.46665351,-0.0330231954,-4.73333668,-0.543483777,3.44046779
43444633098602,0.155528608,4.47837169,-0.0372842553,-4.79558593,-0.550666382,3.44286199
43444634086840,0.156593872,4.48902433,-0.0426105774,-4.87459458,-0.59136781,3.43328518
43444635075077,0.158724401,4.49967698,-0.0479368955,-4.93684382,-0.615309827,3.41891997
43444636063314,0.16085493,4.51139489,-0.0543284821,-4.94881483,-0.610521423,3.38779535
43444637052534,0.16085493,4.52204753,-0.0607200687,-4.93923802,-0.579396802,3.36145913
43444638040771,0.16085493,4.53376544,-0.0692421842,-4.93923802,-0.553060583,3.36385333
43444639029008,0.16085493,4.54548335,-0.0766990394,-4.93444962,-0.524330164,3.34948812
43444640017245,0.16085493,4.55720126,-0.0841558904,-4.92726702,-0.497993945,3.29681569
43444641005483,0.161920194,4.56998443,-0.0905474687,-4.93205542,-0.47644613,3.29920989
43444641993720,0.162985459,4.5827676,-0.0969390554,-4.94642063,-0.442927307,3.29202728
43444642982940,0.164050723,4.59448551,-0.103330642,-4.95839164,-0.407014282,3.24414325
43444643971177,0.165115988,4.60620342,-0.109722229,-4.96078584,-0.411802686,3.19865342
43444644959414,0.167246516,4.61792133,-0.115048551,-4.96078584,-0.409408484,3.14358678
43444645947651,0.167246516,4.62963924,-0.120374873,-4.93923802,-0.395043274,3.07894333
43444646935889,0.169377045,4.64242241,-0.125701195,-4.8985366,-0.395043274,3.0310593
43444647924126,0.171507574,4.65627085,-0.129962253,-4.87459458,-0.368707056,2.97359846
43444648913345,0.173638103,4.67011929,-0.134223311,-4.85783517,-0.351947644,2.91374342
43444649901583,0.175768615,4.68503299,-0.140614906,-4.80516273,-0.330399829,2.89219561
43444650889820,0.174703368,4.69994669,-0.145941228,-4.7596729,-0.292092603,2.86825359
43444651878057,0.175768615,4.71379513,-0.150202285,-4.73094248,-0.268150586,2.84909998
43444652866294,0.177899144,4.72870883,-0.154463343,-4.71418307,-0.215478149,2.82036956
43444653854532,0.178964409,4.74362253,-0.157659137,-4.71418307,-0.174776721,2.79882174
43444654843751,0.178964409,4.75747097,-0.16085493,-4.70221206,-0.136469495,2.78924493
43444655831989,0.180029673,4.77238467,-0.162985459,-4.67827004,-0.0311246216,2.75812031
43444656820226,0.178964409,4.78516785,-0.165115988,-4.65672223,0.0790086548,2.70784208
43444657808463,0.175768615,4.79901628,-0.165115988,-4.65193383,0.146046301,2.62643922
43444658796700,0.172572839,4.81286472,-0.165115988,-4.67587584,0.227449158,2.52827695
43444659784938,0.166181252,4.82884369,-0.161920194,-4.68305845,0.351947644,2.46123931
43444660774157,0.16085493,4.84588792,-0.158724401,-4.69742366,0.44771571,2.34871183
43444661762394,0.154463343,4.86399741,-0.157659137,-4.71657727,0.512359155,2.23618435
43444662750632,0.147006492,4.88104165,-0.156593872,-4.74530769,0.600944617,2.1595699
43444663738869,0.139549633,4.89808588,-0.154463343,-4.80037433,0.703895288,2.05901343
43444664727106,0.131027517,4.91726064,-0.15126755,-4.87459458,0.799663354,1.95845696
43444665716326,0.122505402,4.9364354,-0.145941228,-4.92966122,0.902614026,1.8698715
43444666704563,0.111852757,4.95667542,-0.14168017,-4.94163223,1.02950671,1.76692083
43444667692800,0.100134849,4.97904597,-0.135288575,-5.01345828,1.13724579,1.66397015
43444668681037,0.0873516838,4.999286,-0.129962253,-5.09725533,1.23061965,1.5897499
43444669669275,0.0745685105,5.01952602,-0.125701195,-5.16429298,1.34554133,1.49877024
43444670657512,0.0617853331,5.04083131,-0.121440137,-5.25287844,1.41497318,1.36230074
43444671646732,0.046871631,5.06107134,-0.116113815,-5.34625231,1.48440503,1.19231243
43444672634969,0.031957931,5.08131136,-0.109722229,-5.43483777,1.5873557,1.03429512
43444673623206,0.0181094954,5.10261665,-0.103330642,-5.57848987,1.65439335,0.914585034
43444674611443,0.00319579305,5.12392194,-0.0990695842,-5.67904634,1.71903679,0.79248075
43444675599681,-0.0117179078,5.14842302,-0.093743262,-5.72453617,1.78607444,0.653617053
43444676587918,-0.0266316088,5.1729241,-0.0873516838,-5.85142886,1.83635267,0.531512769
43444677577137,-0.041545313,5.19635992,-0.0788295683,-5.96874474,1.89381351,0.407014282
43444678565375,-0.0564590109,5.21979574,-0.0713727172,-6.054936,1.94409175,0.282515796
43444679553612,-0.0703074528,5.24216629,-0.063915862,-6.15549247,1.98000477,0.148440503
43444680541849,-0.0841558904,5.26453684,-0.0564590109,-6.26323154,1.99915839,-0.00957680664
43444681530086,-0.0969390554,5.28903792,-0.0500674243,-6.339846,2.00873519,-0.138863696
43444682518324,-0.108656964,5.31353901,-0.0404800486,-6.42124885,2.0254946,-0.225054956
43444683507543,-0.120374873,5.33804009,-0.0298274021,-6.50025751,2.08295544,-0.301669409
43444684495781,-0.131027517,5.3646717,-0.0191747598,-6.57208356,2.12605107,-0.371101257
43444685484018,-0.143810699,5.39023805,-0.00958737992,-6.66066902,2.12365687,-0.430956299
43444686472255,-0.155528608,5.41473913,0.00106526437,-6.79953271,2.09971486,-0.47644613
43444687460492,-0.165115988,5.44030547,0.0117179078,-6.91206019,2.06859023,-0.486022937
43444688448730,-0.174703368,5.46480656,0.0223705511,-6.98867465,1.99436998,-0.512359155
43444689437949,-0.183225466,5.48824237,0.0330231954,-7.10838473,1.78846864,-0.572214197
43444690426186,-0.190682317,5.51167819,0.0404800486,-7.18499918,1.52271226,-0.596156213
43444691414424,-0.19600864,5.53298348,0.0458063666,-7.20175859,1.47482822,-0.66319386
43444692402661,-0.19600864,5.55535403,0.0500674243,-7.28794985,1.54186587,-0.711077893
43444693390898,-0.19600864,5.57985512,0.0553937465,-7.39808313,1.53707747,-0.730231506
43444694379135,-0.194943375,5.60329093,0.0628505976,-7.46990918,1.50355864,-0.737414111
43444695368355,-0.19600864,5.62459569,0.0703074528,-7.56088884,1.47722242,-0.782903943
43444696356592,-0.19600864,5.64483571,0.0777643038,-7.61356128,1.53707747,-0.866701001
43444697344830,-0.19600864,5.666141,0.0862864193,-7.67341632,1.56820209,-0.818816968
43444698333067,-0.194943375,5.6842505,0.0969390554,-7.75721338,1.5801731,-0.761356128
43444699321304,-0.193878111,5.69809894,0.108656964,-7.82664523,1.61608612,-0.900219824
43444700309541,-0.188551789,5.70875158,0.123570666,-7.97987413,1.54665427,-1.22104285
43444701298761,-0.178964409,5.72153475,0.138484368,-8.18338127,1.39581957,-1.3024457
43444702286998,-0.173638103,5.73431793,0.152332814,-8.32463917,1.34554133,-1.20907184
43444703275235,-0.171507574,5.74603584,0.165115988,-8.41083043,1.39103116,-1.26413848
43444704263473,-0.169377045,5.75988427,0.17683388,-8.5137811,1.39581957,-1.33117612
43444705251710,-0.167246516,5.77586324,0.189617053,-8.66701001,1.38863696,-1.25216747
43444706239947,-0.168311781,5.78864641,0.204530755,-8.77235488,1.40060797,-1.12766898
43444707229167,-0.171507574,5.80036432,0.218379193,-8.89685337,1.40779058,-1.05823713
43444708217404,-0.174703368,5.81101697,0.231162366,-9.02853446,1.38384856,-1.0079589
43444709205641,-0.178964409,5.81953908,0.245010804,-9.14345614,1.26892688,-1.01992991
43444710193879,-0.183225466,5.82699593,0.257793977,-9.21528219,1.11330377,-1.04387192
43444711182116,-0.187486524,5.83338752,0.27057715,-9.2272532,1.0055647,-0.993593689
43444712170353,-0.189617053,5.83764858,0.282295076,-9.2272532,1.0055647,-0.790086548
43444713159573,-0.190682317,5.84190963,0.291882455,-9.2320416,0.984016882,-0.679953271
43444714147810,-0.191747582,5.84723596,0.300404571,-9.27753143,0.871489404,-0.675164868
43444715136047,-0.192812846,5.85256228,0.308926686,-9.36372269,0.766144531,-0.636857642
43444716124284,-0.193878111,5.85682334,0.317448802,-9.46906757,0.617704028,-0.60573302
43444717112522,-0.193878111,5.85895387,0.322775124,-9.55047042,0.495599744,-0.56263739
43444718100759,-0.193878111,5.85895387,0.327036182,-9.63187328,0.4333505,-0.553060583
43444719089978,-0.193878111,5.85682334,0.33129724,-9.72524714,0.320823022,-0.53390697
43444720078216,-0.191747582,5.85469281,0.335558297,-9.80665,0.169988318,-0.495599744
43444721066453,-0.190682317,5.85256228,0.336623562,-9.87847605,0.0383072266,-0.46208092
43444722054690,-0.190682317,5.85256228,0.335558297,-9.93114849,-0.0430956299,-0.495599744
43444723042928,-0.189617053,5.84830122,0.334493033,-9.97184991,-0.11492168,-0.471657727
43444724031165,-0.185355995,5.8429749,0.334493033,-10.0460702,-0.196324536,-0.411802686
43444725020384,-0.182160202,5.83764858,0.332362504,-10.1178962,-0.287304199,-0.423773694
43444726008622,-0.181094937,5.83125699,0.330231975,-10.1131078,-0.313640417,-0.531512769
43444726996859,-0.181094937,5.82699593,0.327036182,-10.1083194,-0.337582434,-0.708683691
43444727985096,-0.177899144,5.8248654,0.324905653,-10.1849339,-0.409408484,-0.828393774
43444728973333,-0.173638103,5.82060435,0.322775124,-10.2950671,-0.481234534,-0.924161841
43444729962553,-0.166181252,5.81527802,0.320644595,-10.3860468,-0.529118567,-0.948103857
43444730950790,-0.158724401,5.80888644,0.317448802,-10.4674497,-0.53390697,-0.991199487
43444731939027,-0.154463343,5.80249485,0.315318273,-10.5344873,-0.536301172,-1.10133276
43444732927265,-0.147006492,5.79716853,0.311057215,-10.625467,-0.53390697,-1.21625444
43444733915502,-0.142745434,5.78971168,0.307861422,-10.7810901,-0.509964954,-1.29047469
43444734903739,-0.138484368,5.78332009,0.306796158,-10.8912234,-0.457292517,-1.31681091
43444735892959,-0.136353839,5.77586324,0.303600364,-11.0013566,-0.421379492,-1.37666595
43444736881196,-0.136353839,5.76734112,0.300404571,-11.1330377,-0.366312854,-1.38863696
43444737869433,-0.138484368,5.75988427,0.298274042,-11.2359884,-0.304063611,-1.36948335
43444738857671,-0.138484368,5.75136216,0.296143513,-11.3652753,-0.275333191,-1.39821377
43444739845908,-0.140614906,5.74177478,0.29294772,-11.4849854,-0.268150586,-1.45088621
43444740834145,-0.144875963,5.73112213,0.289751927,-11.5807534,-0.232237561,-1.48201083
43444741823365,-0.15126755,5.71940422,0.286556133,-11.6765215,-0.15801731,-1.49158763
43444742811602,-0.158724401,5.70662105,0.282295076,-11.7267997,-0.0718260498,-1.45567461
43444743799839,-0.165115988,5.69596841,0.278034001,-11.824962,-0.00957680664,-1.4413094
43444744788076,-0.172572839,5.68638103,0.275903472,-11.9183359,0.0215478149,-1.47722242
43444745776314,-0.182160202,5.67572838,0.274838208,-11.9734025,0.0550666382,-1.42933839
43444746764551,-0.192812846,5.66294521,0.273772943,-12.0452286,0.0383072266,-1.41018478
43444747753771,-0.203465491,5.64909677,0.272707679,-12.097901,0.0407014282,-1.43173259
43444748742008,-0.213052871,5.63524833,0.272707679,-12.1864865,0.0670376465,-1.4413094
43444749730245,-0.22264025,5.62033463,0.272707679,-12.2343705,0.117315881,-1.47482822
43444750718482,-0.23222763,5.60648673,0.273772943,-12.2439473,0.124498486,-1.46764562
43444751706720,-0.240749746,5.59263829,0.274838208,-12.2295821,-0.177170923,-1.45567461
43444752694957,-0.249271861,5.57772459,0.275903472,-12.2176111,-0.545877979,-1.39342537
43444753684176,-0.25140239,5.56174562,0.271642415,-12.0667764,-0.512359155,-1.48201083
43444754672414,-0.248206597,5.54576665,0.268446621,-12.08593,-0.316034619,-1.52750066
43444755660651,-0.245010804,5.53085295,0.267381357,-12.1888807,-0.318428821,-1.33835873
43444756648888,-0.247141333,5.51593925,0.268446621,-12.1553618,-0.339976636,-1.21625444
43444757637125,-0.25140239,5.49889502,0.271642415,-12.157756,-0.186747729,-1.28568629
43444758625363,-0.254598184,5.48078552,0.275903472,-12.1146604,-0.00478840332,-1.37906016
43444759614582,-0.253532919,5.46267603,0.28336034,-12.2008517,0.0287304199,-1.32878192
43444760602820,-0.253532919,5.44350127,0.29294772,-12.3085907,0.0383072266,-1.23301385
43444761591057,-0.255663448,5.42326124,0.3025351,-12.3421096,0.1436521,-1.1492168
43444762579294,-0.259924506,5.40089069,0.313187744,-12.4139356,0.222660754,-1.18512982
43444763567531,-0.263120299,5.37638961,0.324905653,-12.4953385,0.258573779,-1.27132108
43444764555769,-0.265250828,5.35082326,0.338754091,-12.5097037,0.280121594,-1.3000515
43444765544988,-0.27057715,5.32312639,0.352602495,-12.5216747,0.328005627,-1.31441671
43444766533225,-0.274838208,5.29649478,0.365385668,-12.5384341,0.404620081,-1.37906016
43444767521463,-0.276968737,5.27412422,0.379234106,-12.5719529,0.445321509,-1.42454999
