#t[ns],wx,wy,wz,ax,ay,az
147857522000,-0.446345765,-0.0958737909,-0.0170442299,-8.74362446,-0.318428821,-2.05661923
147858528000,-0.44741103,-0.0873516838,-0.0149137011,-8.82502732,-0.239420166,-2.10929166
147859535000,-0.448476294,-0.0777643038,-0.0159789655,-8.88727656,-0.220266553,-2.14999309
147860541000,-0.448476294,-0.0649811264,-0.0213052887,-8.85615194,-0.215478149,-2.26491477
147861547000,-0.446345765,-0.0490021599,-0.0276968733,-8.82742152,-0.296881006,-2.3056162
147862553000,-0.442084708,-0.0340884599,-0.0340884599,-8.8034795,-0.438138904,-2.22421334
147863559000,-0.439954179,-0.0202400243,-0.041545313,-8.71010564,-0.49081134,-2.09971486
147864565000,-0.43782365,-0.0117179078,-0.0479368955,-8.58800135,-0.514753357,-1.91536133
147865572000,-0.435693121,-0.0063915861,-0.0500674243,-8.49223329,-0.59136781,-1.7310078
147866578000,-0.433562592,-0.00532632218,-0.0511326888,-8.43237825,-0.687135876,-1.50116444
147867584000,-0.433562592,-0.0106526444,-0.0500674243,-8.34618699,-0.756567725,-1.34075293
147868590000,-0.436758385,-0.0170442299,-0.046871631,-8.24802472,-0.780509741,-1.37187755
147869596000,-0.442084708,-0.0245010799,-0.0436758419,-8.09479581,-0.799663354,-1.42933839
147870603000,-0.449541559,-0.0276968733,-0.041545313,-7.9367785,-0.818816968,-1.60411511
147871609000,-0.460194203,-0.0276968733,-0.0404800486,-7.76679019,-0.818816968,-1.8794483
147872615000,-0.469781583,-0.0223705511,-0.0383495197,-7.59919607,-0.797269153,-2.08534965
147873621000,-0.478303698,-0.0117179078,-0.0351537264,-7.48427439,-0.775721338,-2.20505973
147874627000,-0.48576055,0.00213052874,-0.0298274021,-7.43160195,-0.790086548,-2.26252057
147875633000,-0.492152136,0.0159789655,-0.0234358155,-7.41005414,-0.782903943,-2.27209738
147876640000,-0.496413194,0.0287621377,-0.0170442299,-7.3597759,-0.809240161,-2.20984813
147877646000,-0.500674252,0.0404800486,-0.0106526444,-7.32386288,-0.794874951,-2.19787712
147878652000,-0.500674252,0.0500674243,-0.00426105748,-7.30710347,-0.768538733,-2.23857855
147879658000,-0.500674252,0.0596548043,0.00106526437,-7.30470927,-0.780509741,-2.26252057
147880664000,-0.500674252,0.0724379817,0.00745685053,-7.26640204,-0.699106885,-2.31998141
147881670000,-0.501739516,0.0862864193,0.0138484366,-7.18499918,-0.656011255,-2.3104046
147882677000,-0.502804781,0.101200113,0.0213052887,-7.15626876,-0.708683691,-2.20984813
147883683000,-0.502804781,0.116113815,0.0287621377,-7.15866296,-0.7206547,-2.14520469
147884689000,-0.503870045,0.131027517,0.0372842553,-7.2089412,-0.701501086,-2.08295544
147885695000,-0.502804781,0.14168017,0.046871631,-7.24964263,-0.74938512,-1.97761057
147886701000,-0.501739516,0.15126755,0.0553937465,-7.30949767,-0.787692346,-1.93690914
147887708000,-0.502804781,0.158724401,0.0628505976,-7.29752666,-0.758961926,-1.97761057
147888714000,-0.502804781,0.167246516,0.0703074528,-7.25203683,-0.797269153,-2.03746561
147889720000,-0.500674252,0.177899144,0.0777643038,-7.24724843,-0.802057556,-2.11408007
147890726000,-0.498543723,0.189617053,0.0852211549,-7.24485422,-0.780509741,-2.14999309
147891732000,-0.498543723,0.202400226,0.0916127332,-7.28794985,-0.840364783,-2.20027133
147892738000,-0.497478458,0.214118135,0.0980043198,-7.29513246,-0.878672009,-2.24097275
147893745000,-0.495347929,0.225836044,0.104395906,-7.29273826,-0.890643018,-2.20027133
147894751000,-0.493217401,0.238619217,0.110787493,-7.34062229,-0.919373438,-2.18590612
147895757000,-0.491086872,0.250337126,0.11717908,-7.40526573,-0.984016882,-2.19787712
147896763000,-0.490021607,0.259924506,0.122505402,-7.43639036,-1.02471831,-2.13802208
147897769000,-0.488956343,0.27057715,0.12676646,-7.45075557,-0.976834277,-2.13562788
147898776000,-0.487891078,0.281229811,0.131027517,-7.48188019,-1.00077629,-2.19069452
147899782000,-0.48576055,0.290817191,0.136353839,-7.52976422,-1.02232411,-2.27927998
147900788000,-0.483630021,0.301469835,0.140614906,-7.54173523,-1.01992991,-2.34631763
147901794000,-0.482564756,0.313187744,0.144875963,-7.59440767,-1.10612117,-2.33674082
147902800000,-0.482564756,0.324905653,0.147006492,-7.6494743,-1.1563994,-2.41814368
147903806000,-0.482564756,0.338754091,0.149137021,-7.74045397,-1.21625444,-2.46602771
147904813000,-0.480434227,0.351537231,0.150202285,-7.83861624,-1.27610948,-2.49475813
147905819000,-0.479368963,0.365385668,0.150202285,-7.90086548,-1.27371528,-2.54982477
147906825000,-0.478303698,0.379234106,0.147006492,-7.9367785,-1.25935007,-2.54503636
147907831000,-0.477238434,0.393082544,0.145941228,-8.00142195,-1.27610948,-2.56179578
147908837000,-0.475107905,0.406930981,0.144875963,-8.0708538,-1.24977327,-2.54982477
147909843000,-0.471912112,0.420779419,0.142745434,-8.12113203,-1.21864865,-2.52348855
147910850000,-0.469781583,0.431432063,0.139549633,-8.15465085,-1.23780226,-2.48757552
147911856000,-0.467651054,0.441019443,0.137419104,-8.17141027,-1.19710083,-2.42772048
147912862000,-0.46658579,0.450606823,0.136353839,-8.24802472,-1.13245739,-2.39420166
147913868000,-0.464455261,0.460194203,0.134223311,-8.30548556,-1.10372697,-2.33913502
147914874000,-0.459128939,0.469781583,0.134223311,-8.35336959,-1.04866033,-2.33674082
147915881000,-0.454867881,0.47617317,0.133158046,-8.38210001,-1.0127473,-2.3080104
147916887000,-0.452737352,0.481499492,0.132092782,-8.43237825,-1.00077629,-2.25294376
147917893000,-0.450606823,0.48576055,0.129962253,-8.46829127,-0.893037219,-2.26970317
147918899000,-0.448476294,0.488956343,0.127831724,-8.46110867,-0.809240161,-2.3008278
147919905000,-0.446345765,0.493217401,0.127831724,-8.48744489,-0.797269153,-2.3056162
147920911000,-0.442084708,0.496413194,0.127831724,-8.48026228,-0.742202515,-2.32955822
147921918000,-0.438888914,0.496413194,0.128896988,-8.49223329,-0.711077893,-2.37504805
147922924000,-0.43782365,0.499608987,0.128896988,-8.52575211,-0.684741675,-2.36547124
147923930000,-0.436758385,0.502804781,0.12676646,-8.54011732,-0.646434448,-2.36068284
147924936000,-0.435693121,0.506000574,0.12676646,-8.55448253,-0.586579407,-2.39899006
147925942000,-0.434627857,0.508131103,0.125701195,-8.57124194,-0.543483777,-2.41335527
147926948000,-0.433562592,0.510261632,0.12676646,-8.58560715,-0.553060583,-2.43011469
147927955000,-0.431432063,0.513457425,0.12676646,-8.58560715,-0.526724365,-2.46602771
147928961000,-0.431432063,0.516653218,0.12676646,-8.61673177,-0.47644613,-2.4588451
147929967000,-0.431432063,0.519849011,0.125701195,-8.64067379,-0.464475122,-2.46123931
147930973000,-0.433562592,0.52197954,0.123570666,-8.68616362,-0.488417139,-2.47799872
147931979000,-0.434627857,0.524110069,0.123570666,-8.75320127,-0.50517655,-2.4564509
147932986000,-0.433562592,0.526240598,0.124635931,-8.78672009,-0.488417139,-2.43969149
147933992000,-0.433562592,0.527305863,0.124635931,-8.8034795,-0.450109912,-2.42532628
147934998000,-0.433562592,0.527305863,0.123570666,-8.84657513,-0.442927307,-2.42293208
147936004000,-0.435693121,0.528371127,0.122505402,-8.91600698,-0.450109912,-2.44208569
147937010000,-0.436758385,0.529436391,0.121440137,-9.00459244,-0.46208092,-2.46602771
147938016000,-0.438888914,0.530501656,0.119309609,-9.07163009,-0.486022937,-2.47081611
147939023000,-0.438888914,0.53156692,0.115048551,-9.12190833,-0.488417139,-2.48996973
147940029000,-0.438888914,0.53156692,0.110787493,-9.18655177,-0.454898315,-2.53306536
147941035000,-0.438888914,0.53156692,0.1075917,-9.25837782,-0.457292517,-2.52827695
147942041000,-0.441019443,0.532632185,0.103330642,-9.28950244,-0.457292517,-2.50912334
147943047000,-0.441019443,0.533697449,0.0990695842,-9.35414589,-0.438138904,-2.50912334
147944054000,-0.439954179,0.533697449,0.0948085265,-9.43315454,-0.445321509,-2.51630594
147945060000,-0.438888914,0.533697449,0.0905474687,-9.49540378,-0.459686719,-2.54264216
147946066000,-0.438888914,0.533697449,0.0862864193,-9.50498059,-0.466869324,-2.52348855
147947072000,-0.436758385,0.534762714,0.0820253616,-9.57441244,-0.497993945,-2.56179578
147948078000,-0.436758385,0.533697449,0.075633775,-9.74200656,-0.550666382,-2.61686241
147949084000,-0.435693121,0.532632185,0.0703074528,-9.86889924,-0.567425793,-2.64319863
147950091000,-0.434627857,0.532632185,0.0617853331,-9.9455137,-0.584185205,-2.7413609
147951097000,-0.434627857,0.533697449,0.0521979532,-10.0125513,-0.612915625,-2.76290872
147952103000,-0.433562592,0.533697449,0.041545313,-10.1298672,-0.622492432,-2.70065947
147953109000,-0.432497328,0.530501656,0.0330231954,-10.1873281,-0.598550415,-2.71263048
147954115000,-0.429301534,0.528371127,0.0245010799,-10.2639425,-0.624886633,-2.77487972
147955121000,-0.42823627,0.527305863,0.0159789655,-10.4052004,-0.679953271,-2.78924493
147956128000,-0.426105741,0.524110069,0.0063915861,-10.5273047,-0.727837305,-2.82515796
147957134000,-0.423975212,0.518783747,-0.00426105748,-10.625467,-0.770932935,-2.84909998
147958140000,-0.420779419,0.514522689,-0.0159789655,-10.7547539,-0.787692346,-2.82994636
147959146000,-0.41864889,0.510261632,-0.0287621377,-10.8600987,-0.804451758,-2.82515796
147960152000,-0.417583626,0.504935309,-0.041545313,-10.9079828,-0.79248075,-2.83952317
147961159000,-0.417583626,0.497478458,-0.0532632176,-10.9774146,-0.821211169,-2.86346519
147962165000,-0.415453097,0.491086872,-0.0649811264,-11.0564233,-0.847547388,-2.89698401
147963171000,-0.413322568,0.48576055,-0.0766990394,-11.1641623,-0.828393774,-2.92332023
147964177000,-0.413322568,0.479368963,-0.0905474687,-11.2312,-0.847547388,-2.92332023
147965183000,-0.414387832,0.472977376,-0.104395906,-11.3126028,-0.849941589,-2.93768544
147966189000,-0.414387832,0.465520525,-0.116113815,-11.4083709,-0.835576379,-2.93289703
147967196000,-0.412257303,0.458063674,-0.128896988,-11.4610433,-0.852335791,-2.91134922
147968202000,-0.411192039,0.449541559,-0.14168017,-11.4969564,-0.847547388,-2.91134922
147969208000,-0.411192039,0.442084708,-0.153398079,-11.5089274,-0.821211169,-2.92092603
147970214000,-0.40906151,0.432497328,-0.164050723,-11.5256868,-0.823605371,-2.93050283
147971220000,-0.406930981,0.421844683,-0.175768615,-11.4897738,-0.885854614,-2.90656082
147972226000,-0.403735188,0.412257303,-0.18642126,-11.4730144,-0.909796631,-2.91134922
147973233000,-0.401604659,0.401604659,-0.197073904,-11.4299187,-0.919373438,-2.90656082
147974239000,-0.39947413,0.38988675,-0.20559602,-11.3748521,-0.995987891,-2.8898014
147975245000,-0.398408866,0.38029937,-0.213052871,-11.3197854,-1.13006318,-2.75572611
147976251000,-0.396278337,0.368581462,-0.220509722,-11.2766898,-1.27371528,-2.69587107
147977257000,-0.394147808,0.355798288,-0.227966573,-11.195287,-1.35032974,-2.82276376
147978264000,-0.393082544,0.344080413,-0.233292895,-11.0827595,-1.54665427,-2.82036956
147979270000,-0.390952015,0.335558297,-0.235423424,-11.0157218,-1.81001646,-2.76769712
147980276000,-0.386690957,0.328101446,-0.235423424,-10.9606552,-1.95606276,-2.83712897
147981282000,-0.383495164,0.319579331,-0.234358159,-10.9295306,-2.06380183,-2.98556947
147982288000,-0.377103577,0.31212248,-0.230097102,-10.8505219,-2.13802208,-3.09091434
147983294000,-0.37071199,0.306796158,-0.22264025,-10.7786959,-2.21463654,-3.22738384
147984301000,-0.362189875,0.301469835,-0.211987606,-10.7403886,-2.26012637,-3.34230552
147985307000,-0.351537231,0.297208778,-0.199204433,-10.6805336,-2.23857855,-3.454833
147986313000,-0.339819355,0.294012984,-0.184290731,-10.625467,-2.24576116,-3.4596214
147987319000,-0.327036182,0.291882455,-0.165115988,-10.6446206,-2.24336696,-3.41173737
147988325000,-0.313187744,0.286556133,-0.147006492,-10.6757452,-2.17154091,-3.4620156
147989332000,-0.299339307,0.280164547,-0.128896988,-10.6948988,-2.12365687,-3.42849678
147990338000,-0.286556133,0.271642415,-0.111852757,-10.7403886,-2.10210906,-3.38300695
147991344000,-0.272707679,0.265250828,-0.093743262,-10.7906669,-2.13802208,-3.37821854
147992350000,-0.258859241,0.256728712,-0.0745685105,-10.8170031,-2.1667525,-3.41891997
147993356000,-0.243945539,0.246076068,-0.0532632176,-10.7834843,-2.21703074,-3.39497795
147994362000,-0.229031837,0.235423424,-0.0330231954,-10.7763017,-2.37744225,-3.30639249
147995369000,-0.214118135,0.226901308,-0.0127831722,-10.7882727,-2.56418998,-3.22259543
147996375000,-0.199204433,0.217313928,0.00852211497,-10.7786959,-2.7341783,-3.19386501
147997381000,-0.182160202,0.208791813,0.0287621377,-10.7188408,-2.86107098,-3.16274039
147998387000,-0.164050723,0.200269697,0.0500674243,-10.6637742,-2.99514628,-3.10288535
147999393000,-0.149137021,0.191747582,0.0703074528,-10.6206786,-3.16034619,-3.06457812
148000399000,-0.134223311,0.182160202,0.0905474687,-10.5967365,-3.27766207,-3.09570275
148001406000,-0.118244344,0.172572839,0.111852757,-10.5249105,-3.37103594,-3.1723172
148002412000,-0.0990695842,0.164050723,0.134223311,-10.424354,-3.51708224,-3.21062443
148003418000,-0.0788295683,0.157659137,0.155528608,-10.340557,-3.65355173,-3.20823022
148004424000,-0.0596548043,0.15126755,0.175768615,-10.2423947,-3.76129081,-3.20344182
148005430000,-0.0383495197,0.143810699,0.19600864,-10.1585976,-3.81156904,-3.26090266
148006437000,-0.0149137011,0.136353839,0.218379193,-10.0604354,-3.82593425,-3.37103594
148007443000,0.00745685053,0.131027517,0.240749746,-9.98142672,-3.93606753,-3.42610258
148008449000,0.0298274021,0.12676646,0.263120299,-9.87129344,-4.05817181,-3.44765039
148009455000,0.0532632176,0.123570666,0.284425604,-9.74200656,-4.08690223,-3.54820686
148010461000,0.0788295683,0.121440137,0.306796158,-9.64145009,-4.13239207,-3.66312854
148011467000,0.106526435,0.121440137,0.33129724,-9.55047042,-4.25449635,-3.63200392
148012474000,0.133158046,0.123570666,0.355798288,-9.46188496,-4.41730206,-3.53863005
148013480000,0.158724401,0.123570666,0.379234106,-9.38527051,-4.55616576,-3.56975468
148014486000,0.18642126,0.121440137,0.402669924,-9.34217488,-4.71657727,-3.63439812
148015492000,0.216248664,0.120374873,0.423975212,-9.35893429,-4.88656559,-3.70861837
148016498000,0.245010804,0.121440137,0.443149972,-9.40202992,-5.0421887,-3.76607921
148017504000,0.273772943,0.121440137,0.459128939,-9.44991395,-5.13556256,-3.86424148
148018511000,0.303600364,0.122505402,0.470846847,-9.50019219,-5.12359155,-4.01747039
148019517000,0.334493033,0.123570666,0.479368963,-9.47864437,-5.01106407,-4.22576593
148020523000,0.367516197,0.124635931,0.483630021,-9.39245311,-4.79319172,-4.37660063
148021529000,0.396278337,0.127831724,0.48576055,-9.29429084,-4.50109912,-4.44603248
148022535000,0.426105741,0.132092782,0.486825814,-9.16260975,-4.14196887,-4.53222374
148023542000,0.45699841,0.134223311,0.484695285,-8.99980404,-3.7565024,-4.6112324
148024548000,0.490021607,0.136353839,0.480434227,-8.86812295,-3.36864174,-4.69981786
148025554000,0.523044805,0.138484368,0.475107905,-8.76517228,-2.96402166,-4.68305845
148026560000,0.555002738,0.140614906,0.468716319,-8.6574332,-2.58334359,-4.55855996
148027566000,0.584830175,0.140614906,0.458063674,-8.57603035,-2.24576116,-4.42687887
148028572000,0.613592315,0.14168017,0.446345765,-8.52575211,-1.91057292,-4.3239282
148029579000,0.638093397,0.143810699,0.432497328,-8.47786808,-1.60172091,-4.20182391
148030585000,0.66046395,0.145941228,0.416518361,-8.41322463,-1.37427175,-4.08450803
148031591000,0.67963871,0.149137021,0.397343601,-8.30069716,-1.1540052,-3.93606753
148032597000,0.700943932,0.153398079,0.377103577,-8.19535228,-0.893037219,-3.78283862
148033603000,0.720118692,0.16085493,0.355798288,-8.15704506,-0.754173523,-3.70861837
148034610000,0.735032394,0.168311781,0.334493033,-8.13789144,-0.67755907,-3.53384165
148035616000,0.744619774,0.17683388,0.31212248,-8.0756422,-0.593762012,-3.38779535
148036622000,0.75314189,0.188551789,0.288686662,-8.03494077,-0.622492432,-3.42610258
148037628000,0.761664005,0.203465491,0.265250828,-7.96072052,-0.679953271,-3.44286199
148038634000,0.770186121,0.218379193,0.240749746,-7.88650027,-0.63446344,-3.37821854
148039640000,0.778708236,0.236488688,0.215183399,-7.94396111,-0.64882865,-3.24174905
148040647000,0.782969294,0.256728712,0.190682317,-7.85776985,-0.799663354,-3.12682737
148041653000,0.784034558,0.275903472,0.166181252,-7.69496414,-0.847547388,-3.18189401
148042659000,0.785099823,0.296143513,0.143810699,-7.75003077,-0.993593689,-3.20823022
148043665000,0.784034558,0.317448802,0.122505402,-7.7811554,-1.21386024,-3.09809695
148044671000,0.777642972,0.336623562,0.103330642,-7.61834968,-1.19231243,-3.10288535
148045677000,0.773381914,0.354733024,0.0852211549,-7.67581052,-1.19231243,-3.20104762
148046684000,0.771251385,0.372842519,0.0681769197,-7.71411775,-1.32399352,-2.99993468
148047690000,0.765925063,0.388821486,0.0532632176,-7.65426271,-1.27610948,-3.09809695
148048696000,0.760598741,0.406930981,0.0404800486,-7.73805977,-1.30723411,-3.14598098
148049702000,0.754207154,0.420779419,0.031957931,-7.7835496,-1.43173259,-3.12443317
148050708000,0.748880832,0.434627857,0.0245010799,-7.73805977,-1.38384856,-3.14837518
148051715000,0.742489245,0.446345765,0.0191747598,-7.83382783,-1.46285721,-2.80839855
148052721000,0.732901865,0.453802616,0.0127831722,-7.92241329,-1.47243402,-3.00711729
148053727000,0.722249221,0.460194203,0.00958737992,-7.90325968,-1.51074125,-3.10767375
148054733000,0.713727106,0.464455261,0.00745685053,-7.90086548,-1.61369192,-2.62643922
148055739000,0.703074461,0.463389996,0.00745685053,-7.88410607,-1.54904847,-2.26252057
148056745000,0.688160826,0.459128939,0.0063915861,-7.86016405,-1.75734402,-1.7238252
148057752000,0.672181859,0.448476294,0.00745685053,-8.09719001,-2.08534965,-0.881066211
148058758000,0.661529215,0.433562592,0.00426105748,-9.83059202,-2.54503636,0.718260498
148059764000,0.640223926,0.402669924,-0.0063915861,-13.5894886,-3.63200392,5.44920298
148060770000,0.593352291,0.360059346,-0.041545313,-15.030798,-2.60967981,6.0501476
148061776000,0.568851209,0.361124611,-0.0916127332,-13.4530191,-0.514753357,2.89937821
148062782000,0.555002738,0.363255139,-0.132092782,-12.418724,0.785298145,0.368707056
148063789000,0.560329093,0.373907784,-0.150202285,-11.9566431,1.62805713,-2.25054956
148064795000,0.575242795,0.392017279,-0.153398079,-12.3516864,1.5897499,-2.33913502
148065801000,0.584830175,0.400539395,-0.153398079,-12.5312515,1.85790049,-2.37265385
148066807000,0.596548084,0.404800452,-0.158724401,-12.5839239,1.88663091,-2.92810863
148067813000,0.611461786,0.40906151,-0.167246516,-12.8496803,1.5849615,-2.54982477
148068820000,0.619983902,0.413322568,-0.17683388,-12.8065847,1.35272394,-2.12365687
148069826000,0.622114431,0.412257303,-0.18642126,-13.1298019,1.1587936,-1.92254393
148070832000,0.618918637,0.406930981,-0.192812846,-13.1298019,0.914585034,-1.37427175
148071838000,0.611461786,0.397343601,-0.199204433,-12.8448919,0.629675037,-1.448492
148072844000,0.601874406,0.385625693,-0.207726548,-12.7682775,0.177170923,-1.94169755
148073850000,0.591221762,0.372842519,-0.218379193,-12.5982891,-0.189141931,-2.33434662
148074857000,0.578438589,0.358994082,-0.230097102,-12.3014081,-0.323217224,-2.41335527
148075863000,0.569916473,0.347276206,-0.242880275,-12.1721212,-0.502782349,-2.49236393
148076869000,0.564590151,0.335558297,-0.256728712,-12.145785,-0.64882865,-2.58094939
148077875000,0.555002738,0.319579331,-0.272707679,-12.0883242,-0.699106885,-2.61446821
148078881000,0.545415358,0.301469835,-0.288686662,-11.896788,-0.699106885,-2.53545956
148079888000,0.534762714,0.280164547,-0.303600364,-11.5089274,-0.574608398,-2.51870015
148080894000,0.525175334,0.26098977,-0.315318273,-11.267113,-0.474051929,-2.48757552
148081900000,0.515587954,0.240749746,-0.322775124,-11.0612117,-0.409408484,-2.35110603
148082906000,0.500674252,0.214118135,-0.327036182,-10.625467,-0.304063611,-2.4540567
148083912000,0.478303698,0.181094937,-0.328101446,-10.1897223,-0.265756384,-2.7389667
148084918000,0.458063674,0.149137021,-0.325970917,-9.74918916,-0.272938989,-2.89698401
148085925000,0.445280501,0.120374873,-0.320644595,-9.49300958,-0.438138904,-2.90177241
148086931000,0.43782365,0.0884169399,-0.31212248,-9.30865605,-0.723048901,-3.01190569
148087937000,0.431432063,0.0521979532,-0.306796158,-8.9351606,-0.703895288,-3.39737216
148088943000,0.420779419,0.0159789655,-0.3025351,-8.54011732,-0.320823022,-3.91212551
148089949000,0.415453097,-0.0149137011,-0.296143513,-8.0756422,0.0383072266,-4.26646736
148090955000,0.415453097,-0.0340884599,-0.285490869,-7.71890615,0.308852014,-4.71657727
148091962000,0.414387832,-0.041545313,-0.271642415,-7.57285985,0.53390697,-5.08049592
148092968000,0.411192039,-0.041545313,-0.255663448,-7.42920775,0.696712683,-5.10443794
148093974000,0.405865717,-0.0372842553,-0.240749746,-7.34541069,0.725443103,-4.8961424
148094980000,0.404800452,-0.0298274021,-0.225836044,-7.37414111,0.727837305,-4.68784685
148095986000,0.402669924,-0.0234358155,-0.210922342,-7.26879624,0.842758984,-4.68545265
148096993000,0.396278337,-0.0191747598,-0.194943375,-7.14669196,0.866701001,-4.75009609
148097999000,0.38988675,-0.0117179078,-0.180029673,-7.08204851,0.828393774,-4.74291349
148099005000,0.384560428,0.00106526437,-0.165115988,-7.03416448,0.837970581,-4.74770189
148100011000,0.378168842,0.0159789655,-0.150202285,-7.01022246,0.873883606,-4.84825836
148101017000,0.369646726,0.031957931,-0.133158046,-7.00543406,0.852335791,-4.85065256
148102023000,0.362189875,0.0500674243,-0.11717908,-7.10838473,0.699106885,-4.65672223
148103030000,0.357928817,0.0692421842,-0.101200113,-7.31907448,0.507570752,-4.34068761
148104036000,0.352602495,0.0862864193,-0.0852211549,-7.50821641,0.311246216,-4.21379492
148105042000,0.347276206,0.101200113,-0.0724379817,-7.68778153,0.174776721,-4.06535442
148106048000,0.34088462,0.115048551,-0.0617853331,-7.88889447,0.00478840332,-3.78762703
148107054000,0.333427768,0.127831724,-0.0532632176,-8.02775817,-0.184353528,-3.59130249
148108060000,0.325970917,0.14168017,-0.0458063666,-8.10676682,-0.227449158,-3.49074602
148109067000,0.317448802,0.155528608,-0.0394147841,-8.2264769,-0.277727393,-3.39497795
148110073000,0.309991951,0.167246516,-0.0340884599,-8.43716665,-0.385466467,-3.26569106
148111079000,0.306796158,0.177899144,-0.0298274021,-8.63109698,-0.378283862,-3.0238767
148112085000,0.303600364,0.18642126,-0.0245010799,-8.73883606,-0.320823022,-2.81318695
148113091000,0.300404571,0.191747582,-0.0191747598,-8.83939253,-0.301669409,-2.75812031
148114098000,0.296143513,0.192812846,-0.0149137011,-8.96867942,-0.280121594,-2.63601603
148115104000,0.289751927,0.192812846,-0.0127831722,-8.97825623,-0.325611426,-2.48996973
148116110000,0.284425604,0.189617053,-0.0117179078,-8.99740984,-0.354341846,-2.28167418
148117116000,0.280164547,0.18642126,-0.00852211497,-9.11951412,-0.330399829,-2.08295544
148118122000,0.274838208,0.181094937,-0.00426105748,-9.23922421,-0.337582434,-2.11886847
148119128000,0.268446621,0.174703368,-0.00213052874,-9.33499227,-0.354341846,-2.15478149
148120135000,0.263120299,0.168311781,-0.00213052874,-9.3756937,-0.359130249,-2.08534965
148121141000,0.256728712,0.16085493,-0.00213052874,-9.36372269,-0.328005627,-2.18111771
148122147000,0.25140239,0.153398079,0,-9.35654009,-0.251391174,-2.31519301
148123153000,0.248206597,0.145941228,0.00319579305,-9.35175168,-0.181959326,-2.28885679
148124159000,0.242880275,0.139549633,0.00745685053,-9.29668505,-0.153228906,-2.25773217
148125166000,0.238619217,0.134223311,0.00958737992,-9.34217488,-0.153228906,-2.41096107
148126172000,0.236488688,0.132092782,0.0106526444,-9.3804821,-0.1436521,-2.48757552
148127178000,0.233292895,0.127831724,0.0117179078,-9.32062706,-0.189141931,-2.41096107
148128184000,0.230097102,0.123570666,0.0138484366,-9.3804821,-0.311246216,-2.61446821
148129190000,0.229031837,0.121440137,0.0159789655,-9.5193458,-0.323217224,-2.58573779
148130196000,0.226901308,0.120374873,0.0159789655,-9.58159504,-0.292092603,-2.42293208
148131203000,0.220509722,0.118244344,0.0149137011,-9.61271967,-0.280121594,-2.4444799
148132209000,0.215183399,0.11717908,0.0127831722,-9.63426748,-0.210689746,-2.41574948
148133215000,0.209857077,0.11717908,0.0117179078,-9.6582095,-0.213083948,-2.49475813
148134221000,0.20559602,0.11717908,0.00958737992,-9.78510219,-0.251391174,-2.50912334
148135227000,0.202400226,0.116113815,0.00745685053,-9.8090442,-0.270544788,-2.43969149
148136233000,0.198139168,0.111852757,0.00852211497,-9.75876597,-0.292092603,-2.34392343
148137240000,0.193878111,0.105461171,0.00852211497,-9.80665,-0.272938989,-2.28167418
148138246000,0.190682317,0.100134849,0.00852211497,-9.86889924,-0.316034619,-2.40138427
148139252000,0.188551789,0.0969390554,0.00745685053,-9.88565865,-0.435744702,-2.40138427
148140258000,0.185355995,0.0926779976,0.00745685053,-9.83538042,-0.411802686,-2.41096107
148141264000,0.178964409,0.0862864193,0.00745685053,-9.73721815,-0.351947644,-2.53067115
148142271000,0.174703368,0.0798948327,0.00745685053,-9.70369933,-0.378283862,-2.66714065
148143277000,0.174703368,0.0735032461,0.0063915861,-9.74918916,-0.378283862,-2.65516964
148144283000,0.173638103,0.0660463909,0.0063915861,-9.70130513,-0.371101257,-2.51630594
148145289000,0.168311781,0.0553937465,0.0063915861,-9.60553706,-0.385466467,-2.53306536
148146295000,0.164050723,0.0436758419,0.00745685053,-9.58877765,-0.404620081,-2.57855519
148147301000,0.162985459,0.0330231954,0.00745685053,-9.55286462,-0.459686719,-2.77487972
148148308000,0.159789665,0.0223705511,0.00745685053,-9.39005891,-0.51954176,-2.99035787
148149314000,0.156593872,0.0106526444,0.00852211497,-9.20331118,-0.438138904,-3.11006796
148150320000,0.154463343,0.00213052874,0.0117179078,-9.11233152,-0.294486804,-3.38061274
148151326000,0.153398079,-0.00426105748,0.0159789655,-9.04289967,-0.289698401,-3.47638081
148152332000,0.154463343,-0.0117179078,0.0191747598,-8.98304463,-0.325611426,-3.48595762
148153338000,0.157659137,-0.0202400243,0.0234358155,-8.95192001,-0.351947644,-3.51708224
148154345000,0.158724401,-0.0276968733,0.0276968733,-8.939949,-0.368707056,-3.56975468
148155351000,0.158724401,-0.0362189908,0.031957931,-8.7939027,-0.304063611,-3.7541082
148156357000,0.159789665,-0.0436758419,0.0372842553,-8.64306799,-0.253785376,-4.01028778
148157363000,0.161920194,-0.0479368955,0.041545313,-8.59757816,-0.299275208,-4.22097753
148158369000,0.162985459,-0.0490021599,0.0458063666,-8.5042043,-0.325611426,-4.42687887
148159376000,0.162985459,-0.0500674243,0.0500674243,-8.48265648,-0.385466467,-4.70939467
148160382000,0.167246516,-0.0479368955,0.0543284821,-8.5065985,-0.521935962,-4.64953962
148161388000,0.173638103,-0.0436758419,0.0585895398,-8.47786808,-0.5770026,-4.50588752
148162394000,0.178964409,-0.041545313,0.0617853331,-8.39407102,-0.612915625,-4.70221206
148163400000,0.183225466,-0.0383495197,0.063915862,-8.42040724,-0.641646045,-4.99909307
148164406000,0.187486524,-0.031957931,0.0660463909,-8.46829127,-0.69192428,-5.12359155
148165413000,0.192812846,-0.0245010799,0.0671116553,-8.44913766,-0.833182178,-5.12119735
148166419000,0.198139168,-0.0159789655,0.0660463909,-8.42519564,-0.818816968,-4.7596729
148167425000,0.203465491,-0.0063915861,0.0628505976,-8.41801304,-0.77811554,-4.69263525
148168431000,0.207726548,0.0063915861,0.0628505976,-8.46350287,-0.878672009,-4.92487281
148169437000,0.213052871,0.0181094954,0.0617853331,-8.54011732,-0.893037219,-4.78122072
148170444000,0.217313928,0.0287621377,0.0607200687,-8.58321295,-0.940921252,-4.74291349
148171450000,0.220509722,0.041545313,0.0575242754,-8.56405934,-0.871489404,-4.7620671
148172456000,0.221574986,0.0532632176,0.0553937465,-8.61912598,-0.732625708,-4.55377156
148173462000,0.223705515,0.0628505976,0.0553937465,-8.71728824,-0.66319386,-4.34787021
148174468000,0.22264025,0.0713727172,0.0553937465,-8.70771144,-0.629675037,-4.17309349
148175474000,0.224770779,0.0788295683,0.0553937465,-8.81784471,-0.658405457,-4.08929644
148176481000,0.225836044,0.0852211549,0.0553937465,-8.89445917,-0.600944617,-4.02465299
148177487000,0.226901308,0.0894822043,0.0564590109,-8.87769976,-0.49081134,-4.09887324
148178493000,0.229031837,0.0926779976,0.0585895398,-8.88488236,-0.371101257,-4.0414124
148179499000,0.229031837,0.0980043198,0.0617853331,-8.90403597,-0.378283862,-3.86424148
148180505000,0.225836044,0.101200113,0.0649811264,-9.03811127,-0.397437476,-3.97437476
148181511000,0.221574986,0.102265378,0.0681769197,-9.12909093,-0.354341846,-4.0342298
148182518000,0.220509722,0.104395906,0.0713727172,-9.18894597,-0.426167896,-3.95043274
148183524000,0.221574986,0.106526435,0.075633775,-9.32062706,-0.409408484,-3.79959803
148184530000,0.22264025,0.106526435,0.0798948327,-9.42597194,-0.332794031,-3.65594594
148185536000,0.219444457,0.104395906,0.0820253616,-9.47864437,-0.270544788,-3.59609089
148186542000,0.215183399,0.101200113,0.0852211549,-9.52652841,-0.189141931,-3.73256039
148187549000,0.209857077,0.100134849,0.0894822043,-9.58159504,-0.217872351,-3.83072266
148188555000,0.206661284,0.101200113,0.0916127332,-9.73003555,-0.421379492,-3.81875165
148189561000,0.208791813,0.103330642,0.0926779976,-9.92157168,-0.502782349,-3.66073434
148190567000,0.207726548,0.102265378,0.0926779976,-10.0245224,-0.359130249,-3.56496627
148191573000,0.202400226,0.0990695842,0.093743262,-10.0460702,-0.325611426,-3.58890829
148192579000,0.197073904,0.0958737909,0.0926779976,-10.0867716,-0.375889661,-3.42131417
148193586000,0.194943375,0.0948085265,0.0916127332,-10.1418382,-0.332794031,-3.32794031
148194592000,0.191747582,0.0926779976,0.0916127332,-10.1609918,-0.277727393,-3.3135751
148195598000,0.185355995,0.0894822043,0.0926779976,-10.2328179,-0.306457812,-3.33033451
148196604000,0.181094937,0.0884169399,0.0916127332,-10.3573164,-0.366312854,-3.22977804
148197610000,0.177899144,0.0873516838,0.0905474687,-10.4291424,-0.356736047,-3.07415493
148198616000,0.174703368,0.083090626,0.0894822043,-10.424354,-0.344765039,-2.84670577
148199623000,0.17044231,0.0766990394,0.0894822043,-10.3812584,-0.280121594,-2.64319863
148200629000,0.166181252,0.0692421842,0.0894822043,-10.4052004,-0.0885854614,-2.53306536
148201635000,0.158724401,0.0628505976,0.0894822043,-10.5704003,-0.0790086548,-2.52588275
148202641000,0.15126755,0.0564590109,0.0894822043,-10.6230728,-0.186747729,-2.47799872
148203647000,0.14168017,0.0500674243,0.0905474687,-10.5775829,-0.189141931,-2.40856687
148204654000,0.134223311,0.041545313,0.0905474687,-10.625467,-0.138863696,-2.48518132
148205660000,0.131027517,0.0330231954,0.093743262,-10.7068698,-0.12928689,-2.35350023
148206666000,0.128896988,0.0234358155,0.0980043198,-10.8074263,-0.134075293,-2.22900175
148207672000,0.12676646,0.0117179078,0.100134849,-10.8912234,-0.165199915,-2.14041628
148208678000,0.124635931,-0.00319579305,0.102265378,-10.9175596,-0.229843359,-2.04464822
148209684000,0.123570666,-0.0213052887,0.103330642,-10.8912234,-0.201112939,-2.08774385
148210691000,0.124635931,-0.0383495197,0.104395906,-10.9678378,-0.148440503,-2.08534965
148211697000,0.125701195,-0.0553937465,0.1075917,-11.0013566,-0.11492168,-1.96324536
148212703000,0.122505402,-0.075633775,0.111852757,-10.9917798,-0.110133276,-1.99197578
148213709000,0.120374873,-0.0958737909,0.116113815,-11.0588175,-0.186747729,-2.04943662
148214715000,0.119309609,-0.115048551,0.119309609,-11.1019131,-0.258573779,-1.89620771
148215721000,0.118244344,-0.133158046,0.121440137,-11.1330377,-0.282515796,-1.88902511
148216728000,0.113983286,-0.154463343,0.123570666,-11.1234609,-0.277727393,-2.03746561
148217734000,0.109722229,-0.172572839,0.124635931,-11.0564233,-0.246602771,-1.97282217
148218740000,0.106526435,-0.188551789,0.124635931,-11.0013566,-0.177170923,-1.83395847
148219746000,0.103330642,-0.203465491,0.125701195,-11.0037508,-0.122104285,-2.00394679
148220752000,0.0980043198,-0.217313928,0.127831724,-10.9486842,-0.112527478,-2.18351191
148221759000,0.093743262,-0.229031837,0.128896988,-10.934319,-0.0646434448,-2.14041628
148222765000,0.0873516838,-0.240749746,0.131027517,-11.0109334,-0.00718260498,-2.08056124
148223771000,0.0788295683,-0.252467655,0.134223311,-10.9319248,0.0287304199,-2.0207062
148224777000,0.0692421842,-0.264185563,0.134223311,-10.8050321,0.0478840332,-1.98479318
148225783000,0.0628505976,-0.275903472,0.137419104,-10.8241857,0.169988318,-1.81241066
148226789000,0.0543284821,-0.287621398,0.140614906,-10.7954553,0.294486804,-1.78607444
148227796000,0.0436758419,-0.298274042,0.143810699,-10.6518032,0.277727393,-2.09492645
148228802000,0.0330231954,-0.306796158,0.145941228,-10.6518032,0.289698401,-2.03267721
148229808000,0.0234358155,-0.316383538,0.149137021,-10.649409,0.325611426,-1.97042797
148230814000,0.0138484366,-0.322775124,0.152332814,-10.5751887,0.337582434,-2.04464822
148231820000,0.00426105748,-0.328101446,0.156593872,-10.5392757,0.337582434,-1.97282217
148232827000,-0.00319579305,-0.335558297,0.16085493,-10.5440641,0.275333191,-2.05661923
148233833000,-0.00852211497,-0.344080413,0.166181252,-10.5799771,0.275333191,-1.97042797
148234839000,-0.0149137011,-0.355798288,0.169377045,-10.4985743,0.270544788,-1.85311208
148235845000,-0.0245010799,-0.367516197,0.172572839,-10.3812584,0.296881006,-1.63763394
148236851000,-0.0330231954,-0.376038313,0.177899144,-10.3142208,0.332794031,-1.63763394
148237857000,-0.0383495197,-0.382429899,0.184290731,-10.3429512,0.270544788,-1.94648595
148238864000,-0.0447411022,-0.388821486,0.188551789,-10.3597106,0.198718738,-1.98958158
148239870000,-0.0521979532,-0.396278337,0.190682317,-10.2591541,0.153228906,-1.96803376
148240876000,-0.0607200687,-0.402669924,0.193878111,-10.2136643,0.0933738647,-2.00873519
148241882000,-0.0660463909,-0.40906151,0.197073904,-10.1969049,0.0167594116,-1.96803376
148242888000,-0.0692421842,-0.415453097,0.200269697,-10.139444,0.0311246216,-2.07816704
148243894000,-0.0703074528,-0.419714155,0.203465491,-10.1681745,0.0119710083,-2.25773217
148244901000,-0.0735032461,-0.422909948,0.20559602,-10.1921165,0.0263362183,-2.09013805
148245907000,-0.0788295683,-0.42823627,0.206661284,-10.151415,0.117315881,-1.89381351
148246913000,-0.0852211549,-0.432497328,0.208791813,-10.1825397,0.0837970581,-1.95845696
148247919000,-0.0926779976,-0.435693121,0.210922342,-10.1945107,-0.0239420166,-1.99676418
148248925000,-0.0980043198,-0.438888914,0.211987606,-10.1466266,-0.0885854614,-1.95845696
148249932000,-0.102265378,-0.444215237,0.210922342,-10.0532528,-0.0909796631,-2.11408007
148250938000,-0.105461171,-0.446345765,0.211987606,-9.96466731,-0.0478840332,-2.3008278
148251944000,-0.109722229,-0.445280501,0.213052871,-9.93354269,-0.0622492432,-2.40617267
148252950000,-0.115048551,-0.442084708,0.216248664,-9.90002386,-0.0981622681,-2.37025964
148253956000,-0.120374873,-0.43782365,0.218379193,-9.86171664,-0.0837970581,-2.23857855
148254962000,-0.122505402,-0.433562592,0.220509722,-9.81862101,-0.0909796631,-2.27927998
148255969000,-0.124635931,-0.430366799,0.220509722,-9.78270798,-0.0646434448,-2.38462485
148256975000,-0.125701195,-0.426105741,0.22264025,-9.75158336,-0.0287304199,-2.34631763
148257981000,-0.127831724,-0.421844683,0.225836044,-9.68693992,-0.124498486,-2.43250889
148258987000,-0.131027517,-0.416518361,0.227966573,-9.68215151,-0.181959326,-2.55940157
148259993000,-0.132092782,-0.411192039,0.230097102,-9.6558153,-0.160411511,-2.53545956
148260999000,-0.131027517,-0.405865717,0.234358159,-9.56004723,-0.146046301,-2.49236393
148262006000,-0.129962253,-0.402669924,0.239684481,-9.58877765,-0.181959326,-2.48039292
148263012000,-0.129962253,-0.39947413,0.242880275,-9.67018051,-0.301669409,-2.53545956
148264018000,-0.128896988,-0.396278337,0.246076068,-9.67736311,-0.339976636,-2.56658418
148265024000,-0.12676646,-0.393082544,0.249271861,-9.64623849,-0.378283862,-2.58573779
148266030000,-0.123570666,-0.390952015,0.252467655,-9.63426748,-0.44771571,-2.78924493
148267037000,-0.120374873,-0.385625693,0.254598184,-9.61990227,-0.486022937,-2.85388838
148268043000,-0.11717908,-0.379234106,0.256728712,-9.63666168,-0.500388147,-2.75812031
148269049000,-0.112918022,-0.372842519,0.257793977,-9.68454572,-0.541089575,-2.80600435
148270055000,-0.109722229,-0.366450933,0.258859241,-9.6606037,-0.596156213,-2.7365725
148271061000,-0.105461171,-0.362189875,0.258859241,-9.6629979,-0.608127222,-2.52827695
148272067000,-0.103330642,-0.358994082,0.258859241,-9.6653921,-0.627280835,-2.4492683
148273074000,-0.100134849,-0.353667759,0.256728712,-9.68933412,-0.617704028,-2.33674082
148274080000,-0.0990695842,-0.347276206,0.256728712,-9.68933412,-0.653617053,-2.40138427
148275086000,-0.100134849,-0.337688826,0.255663448,-9.64145009,-0.7206547,-2.53306536
148276092000,-0.101200113,-0.325970917,0.252467655,-9.68933412,-0.74938512,-2.50912334
148277098000,-0.102265378,-0.318514066,0.249271861,-9.77313118,-0.679953271,-2.5977088
148278105000,-0.103330642,-0.31212248,0.247141333,-9.7994674,-0.627280835,-2.41814368
148279111000,-0.103330642,-0.307861422,0.246076068,-9.83059202,-0.596156213,-2.13802208
148280117000,-0.102265378,-0.305730893,0.245010804,-9.9526963,-0.59136781,-2.09971486
148281123000,-0.101200113,-0.305730893,0.243945539,-9.98142672,-0.679953271,-2.21942494
148282129000,-0.0990695842,-0.305730893,0.240749746,-9.9503021,-0.612915625,-2.28167418
148283135000,-0.100134849,-0.308926686,0.238619217,-9.98860933,-0.560243188,-2.40617267
148284142000,-0.102265378,-0.311057215,0.236488688,-10.0197339,-0.682347473,-2.68868846
148285148000,-0.101200113,-0.311057215,0.235423424,-9.99818613,-0.708683691,-2.70065947
148286154000,-0.0990695842,-0.31212248,0.234358159,-10.0101571,-0.708683691,-2.54264216
148287160000,-0.0948085265,-0.315318273,0.233292895,-10.0604354,-0.7206547,-2.68868846
148288166000,-0.0916127332,-0.318514066,0.23222763,-10.1059252,-0.715866296,-2.85628258
148289172000,-0.0873516838,-0.320644595,0.233292895,-10.1011368,-0.806845959,-2.80839855
148290179000,-0.083090626,-0.323840389,0.233292895,-10.055647,-0.845153186,-2.87064779
148291185000,-0.0798948327,-0.325970917,0.231162366,-10.0173397,-0.830787976,-3.00472308
148292191000,-0.0766990394,-0.325970917,0.230097102,-9.99818613,-0.871489404,-3.00472308
148293197000,-0.0745685105,-0.325970917,0.230097102,-9.9479079,-0.852335791,-3.00472308
148294203000,-0.0724379817,-0.322775124,0.230097102,-9.91199487,-0.859518396,-3.07894333
148295210000,-0.0692421842,-0.319579331,0.227966573,-9.97184991,-0.830787976,-3.13879838
148296216000,-0.0681769197,-0.316383538,0.225836044,-9.99579193,-0.823605371,-3.14837518
148297222000,-0.0681769197,-0.313187744,0.223705515,-9.9550905,-0.912190833,-3.14358678
148298228000,-0.0671116553,-0.309991951,0.220509722,-9.91438907,-0.914585034,-3.11246216
148299234000,-0.063915862,-0.304665629,0.217313928,-9.88565865,-0.895431421,-3.1723172
148300240000,-0.0617853331,-0.300404571,0.215183399,-9.84016882,-0.859518396,-3.1794998
148301247000,-0.0596548043,-0.296143513,0.214118135,-9.81622681,-0.758961926,-3.0262709
148302253000,-0.0596548043,-0.29294772,0.211987606,-9.78749639,-0.679953271,-2.76530292
148303259000,-0.0617853331,-0.288686662,0.210922342,-9.75158336,-0.742202515,-2.69587107
148304265000,-0.0617853331,-0.28336034,0.209857077,-9.73003555,-0.821211169,-2.87304199
148305271000,-0.0585895398,-0.275903472,0.206661284,-9.75637177,-0.900219824,-3.10767375
148306277000,-0.0553937465,-0.268446621,0.202400226,-9.77552538,-0.976834277,-3.36145913
148307284000,-0.0521979532,-0.264185563,0.199204433,-9.76834277,-0.928950244,-3.23456644
148308290000,-0.0490021599,-0.264185563,0.197073904,-9.81622681,-0.825999573,-2.99754048
148309296000,-0.0447411022,-0.265250828,0.197073904,-9.8090442,-0.818816968,-2.99514628
148310302000,-0.0372842553,-0.268446621,0.197073904,-9.83538042,-0.950498059,-3.01669409
148311308000,-0.0298274021,-0.273772943,0.194943375,-9.91917748,-1.05105453,-3.05021292
148312315000,-0.0223705511,-0.282295076,0.191747582,-9.89044706,-0.979228479,-3.10288535
148313321000,-0.0159789655,-0.289751927,0.189617053,-9.77552538,-0.869095203,-3.25850846
148314327000,-0.0127831722,-0.29294772,0.187486524,-9.77552538,-0.782903943,-3.43807358
148315333000,-0.0138484366,-0.29294772,0.187486524,-9.8090442,-0.74938512,-3.454833
148316339000,-0.0149137011,-0.291882455,0.18642126,-9.81622681,-0.840364783,-3.40934316
148317345000,-0.0170442299,-0.29294772,0.184290731,-9.89523546,-0.854729993,-3.28963308
148318352000,-0.0191747598,-0.297208778,0.182160202,-9.9455137,-0.766144531,-3.21062443
148319358000,-0.0213052887,-0.301469835,0.178964409,-9.88087025,-0.679953271,-3.08852014
148320364000,-0.0255663444,-0.306796158,0.177899144,-9.78270798,-0.545877979,-3.04063611
148321370000,-0.0340884599,-0.308926686,0.175768615,-9.73003555,-0.4333505,-3.13640417
148322376000,-0.0447411022,-0.307861422,0.174703368,-9.69891093,-0.464475122,-3.4620156
148323383000,-0.0532632176,-0.3025351,0.172572839,-9.69412252,-0.593762012,-3.91930812
148324389000,-0.0553937465,-0.299339307,0.171507574,-9.71806454,-0.581791003,-3.83551106
148325395000,-0.0585895398,-0.299339307,0.171507574,-9.72045874,-0.478840332,-3.76368501
148326401000,-0.0596548043,-0.304665629,0.172572839,-9.73003555,-0.502782349,-3.8953661
148327407000,-0.0553937465,-0.308926686,0.173638103,-9.77791958,-0.550666382,-3.86424148
148328413000,-0.0490021599,-0.31212248,0.17683388,-9.80665,-0.584185205,-3.8881835
148329420000,-0.0436758419,-0.319579331,0.177899144,-9.77552538,-0.622492432,-3.91930812
148330426000,-0.0404800486,-0.329166711,0.178964409,-9.70369933,-0.586579407,-3.96000955
148331432000,-0.0383495197,-0.337688826,0.180029673,-9.6677863,-0.62009823,-4.06296022
148332438000,-0.0351537264,-0.343015148,0.181094937,-9.62708488,-0.723048901,-4.10366165
148333444000,-0.031957931,-0.345145677,0.181094937,-9.5241342,-0.766144531,-4.1850645
148334450000,-0.0308926666,-0.346210942,0.181094937,-9.48822118,-0.806845959,-4.25928475
148335457000,-0.0308926666,-0.348341471,0.181094937,-9.49540378,-0.864306799,-4.1802761
148336463000,-0.0298274021,-0.347276206,0.182160202,-9.42597194,-0.857124194,-4.15872828
148337469000,-0.0266316088,-0.346210942,0.183225466,-9.41878933,-0.840364783,-4.19224711
148338475000,-0.0234358155,-0.345145677,0.182160202,-9.48103857,-0.881066211,-4.14196887
148339481000,-0.0213052887,-0.344080413,0.182160202,-9.47146177,-0.873883606,-4.10366165
148340488000,-0.0202400243,-0.343015148,0.181094937,-9.41160673,-0.837970581,-4.10605585
148341494000,-0.0213052887,-0.344080413,0.178964409,-9.3804821,-0.799663354,-4.08211383
148342500000,-0.0202400243,-0.345145677,0.177899144,-9.33738647,-0.780509741,-4.07732543
148343506000,-0.0181094954,-0.347276206,0.175768615,-9.28710824,-0.744596716,-4.05098921
148344512000,-0.0170442299,-0.347276206,0.174703368,-9.24880101,-0.703895288,-4.08690223
148345518000,-0.0159789655,-0.347276206,0.172572839,-9.2320416,-0.694318481,-4.11563265
148346525000,-0.0159789655,-0.346210942,0.171507574,-9.24161841,-0.694318481,-4.07493123
148347531000,-0.0149137011,-0.345145677,0.171507574,-9.19134017,-0.699106885,-4.09408484
148348537000,-0.0117179078,-0.344080413,0.172572839,-9.13627354,-0.67755907,-4.12281526
148349543000,-0.0063915861,-0.341949884,0.171507574,-9.13387933,-0.682347473,-4.12760366
148350549000,-0.00106526437,-0.34088462,0.169377045,-9.14585034,-0.744596716,-4.10845005
148351555000,0.00319579305,-0.339819355,0.169377045,-9.13148513,-0.744596716,-4.05098921
148352562000,0.00745685053,-0.337688826,0.167246516,-9.0883895,-0.708683691,-4.00549938
148353568000,0.00958737992,-0.335558297,0.166181252,-9.07402429,-0.696712683,-4.00789358
148354574000,0.0127831722,-0.334493033,0.166181252,-9.05965908,-0.679953271,-3.96240375
148355580000,0.0181094954,-0.33129724,0.165115988,-9.03092866,-0.684741675,-3.8905777
148356586000,0.0213052887,-0.328101446,0.165115988,-9.00698665,-0.687135876,-3.85227047
148357593000,0.0234358155,-0.324905653,0.162985459,-8.97107362,-0.670376465,-3.81396324
148358599000,0.0234358155,-0.320644595,0.159789665,-8.93037219,-0.624886633,-3.78762703
148359605000,0.0234358155,-0.316383538,0.158724401,-8.89924757,-0.600944617,-3.7445314
148360611000,0.0245010799,-0.311057215,0.157659137,-8.84657513,-0.603338818,-3.66312854
148361617000,0.0255663444,-0.305730893,0.155528608,-8.7962969,-0.557848987,-3.6080619
148362623000,0.0266316088,-0.300404571,0.154463343,-8.76517228,-0.512359155,-3.59130249
148363630000,0.0276968733,-0.295078249,0.153398079,-8.73404766,-0.495599744,-3.56017787
148364636000,0.0276968733,-0.287621398,0.152332814,-8.71010564,-0.454898315,-3.48595762
148365642000,0.0276968733,-0.278034001,0.15126755,-8.69574043,-0.421379492,-3.39976636
148366648000,0.0298274021,-0.269511886,0.150202285,-8.66940421,-0.416591089,-3.34230552
148367654000,0.031957931,-0.263120299,0.149137021,-8.64546219,-0.404620081,-3.29202728
148368661000,0.0330231954,-0.254598184,0.148071757,-8.63588539,-0.378283862,-3.23696064
148369667000,0.0330231954,-0.246076068,0.149137021,-8.61673177,-0.354341846,-3.1747114
148370673000,0.031957931,-0.239684481,0.149137021,-8.61912598,-0.349553442,-3.10527955
148371679000,0.0308926666,-0.23222763,0.148071757,-8.6478564,-0.344765039,-3.00951149
148372685000,0.0308926666,-0.22264025,0.147006492,-8.66940421,-0.337582434,-2.92332023
148373691000,0.0308926666,-0.214118135,0.145941228,-8.68616362,-0.356736047,-2.90177241
148374698000,0.0298274021,-0.207726548,0.143810699,-8.70771144,-0.330399829,-2.89219561
148375704000,0.0298274021,-0.201334962,0.14168017,-8.71010564,-0.282515796,-2.84909998
148376710000,0.0298274021,-0.19600864,0.140614906,-8.72686505,-0.263362183,-2.79163914
148377716000,0.0287621377,-0.189617053,0.139549633,-8.77235488,-0.263362183,-2.77248552
148378722000,0.0276968733,-0.183225466,0.139549633,-8.8010853,-0.260967981,-2.77248552
148379728000,0.0276968733,-0.17683388,0.138484368,-8.80826791,-0.234631763,-2.76290872
148380735000,0.0287621377,-0.17044231,0.134223311,-8.81066211,-0.215478149,-2.7437551
148381741000,0.0276968733,-0.165115988,0.134223311,-8.83939253,-0.205901343,-2.76290872
148382747000,0.0276968733,-0.158724401,0.134223311,-8.84896934,-0.193930334,-2.78206233
148383753000,0.0298274021,-0.152332814,0.134223311,-8.83939253,-0.174776721,-2.77009132
148384759000,0.0287621377,-0.145941228,0.132092782,-8.85375774,-0.184353528,-2.77727393
148385766000,0.0266316088,-0.138484368,0.131027517,-8.87769976,-0.155623108,-2.80600435
148386772000,0.0245010799,-0.133158046,0.131027517,-8.87769976,-0.138863696,-2.80839855
148387778000,0.0245010799,-0.127831724,0.132092782,-8.89924757,-0.122104285,-2.81079275
148388784000,0.0245010799,-0.122505402,0.132092782,-8.92558379,-0.0885854614,-2.83234056
148389790000,0.0255663444,-0.116113815,0.131027517,-8.9423432,-0.0885854614,-2.80121594
148390796000,0.0255663444,-0.110787493,0.131027517,-8.97586202,-0.0814028564,-2.78685073
148391803000,0.0223705511,-0.105461171,0.131027517,-9.01416925,-0.0814028564,-2.81079275
148392809000,0.0213052887,-0.0990695842,0.131027517,-9.04768807,-0.0694318481,-2.80839855
148393815000,0.0181094954,-0.093743262,0.131027517,-9.06444749,-0.0837970581,-2.81797535
148394821000,0.0149137011,-0.0873516838,0.129962253,-9.0907837,-0.0981622681,-2.85149418
148395827000,0.0138484366,-0.0809600971,0.129962253,-9.10754312,-0.102950671,-2.85149418
148396833000,0.0106526444,-0.0745685105,0.128896988,-9.10993732,-0.0909796631,-2.81797535
148397840000,0.0063915861,-0.0692421842,0.127831724,-9.13387933,-0.0885854614,-2.78206233
148398846000,0.00426105748,-0.0649811264,0.125701195,-9.16979236,-0.0790086548,-2.75333191
148399852000,0.00106526437,-0.0596548043,0.124635931,-9.20091698,-0.0478840332,-2.75812031
148400858000,-0.00106526437,-0.0532632176,0.124635931,-9.21049379,-0.0239420166,-2.79642754
148401864000,-0.00319579305,-0.046871631,0.123570666,-9.23922421,-0.0119710083,-2.78685073
148402871000,-0.0063915861,-0.041545313,0.123570666,-9.28471404,-0.0287304199,-2.7389667
148403877000,-0.0106526444,-0.0383495197,0.122505402,-9.29668505,-0.0359130249,-2.70065947
148404883000,-0.0149137011,-0.0340884599,0.123570666,-9.33738647,-0.0167594116,-2.69108267
148405889000,-0.0191747598,-0.0287621377,0.125701195,-9.39484731,0.00957680664,-2.67671746
148406895000,-0.0223705511,-0.0234358155,0.127831724,-9.43076034,-0.0119710083,-2.65038124
148407901000,-0.0245010799,-0.0191747598,0.125701195,-9.45470236,-0.0167594116,-2.62404502
148408908000,-0.0276968733,-0.0159789655,0.125701195,-9.5121632,-0.01436521,-2.57616099
148409914000,-0.0308926666,-0.0138484366,0.12676646,-9.59117185,-0.0574608398,-2.54264216
148410920000,-0.0351537264,-0.0117179078,0.128896988,-9.64384429,-0.0718260498,-2.50912334
148411926000,-0.0394147841,-0.0106526444,0.131027517,-9.67736311,-0.0646434448,-2.4492683
148412932000,-0.0426105774,-0.00852211497,0.131027517,-9.72764135,-0.0742202515,-2.39180746
148413939000,-0.0458063666,-0.00745685053,0.131027517,-9.8018616,-0.0885854614,-2.35589443
148414945000,-0.0490021599,-0.00745685053,0.131027517,-9.84256302,-0.122104285,-2.3104046
148415951000,-0.0521979532,-0.0063915861,0.129962253,-9.88087025,-0.134075293,-2.24815536
148416957000,-0.0543284821,-0.0063915861,0.127831724,-9.89044706,-0.126892688,-2.19069452
148417963000,-0.0564590109,-0.00532632218,0.127831724,-9.92157168,-0.167594116,-2.12605107
148418969000,-0.0585895398,-0.00532632218,0.127831724,-9.99579193,-0.191536133,-2.08534965
148419976000,-0.0607200687,-0.0063915861,0.125701195,-10.0245224,-0.179565125,-2.07337864
148420982000,-0.0649811264,-0.00852211497,0.124635931,-10.0484644,-0.186747729,-2.03267721
148421988000,-0.0660463909,-0.00958737992,0.123570666,-10.0580412,-0.184353528,-1.99436998
148422994000,-0.0681769197,-0.0117179078,0.123570666,-10.0891658,-0.169988318,-1.94888015
148424000000,-0.0692421842,-0.0149137011,0.123570666,-10.1107136,-0.181959326,-1.93690914
148425006000,-0.0692421842,-0.0202400243,0.124635931,-10.1131078,-0.189141931,-1.94409175
148426013000,-0.0692421842,-0.0234358155,0.123570666,-10.1202904,-0.169988318,-1.92014973
148427019000,-0.0703074528,-0.0266316088,0.123570666,-10.1250788,-0.162805713,-1.91775553
148428025000,-0.0713727172,-0.0276968733,0.122505402,-10.1418382,-0.17238252,-1.92014973
148429031000,-0.0724379817,-0.0298274021,0.122505402,-10.1562034,-0.189141931,-1.92733234
148430037000,-0.0724379817,-0.0340884599,0.121440137,-10.1466266,-0.203507141,-1.93930334
148431044000,-0.0724379817,-0.0372842553,0.120374873,-10.1466266,-0.196324536,-1.94888015
148432050000,-0.0735032461,-0.0404800486,0.119309609,-10.1777513,-0.198718738,-1.95845696
148433056000,-0.0745685105,-0.0447411022,0.119309609,-10.1777513,-0.193930334,-1.97282217
148434062000,-0.0735032461,-0.046871631,0.119309609,-10.1609918,-0.186747729,-2.01112939
148435068000,-0.0713727172,-0.0490021599,0.118244344,-10.1585976,-0.196324536,-2.06380183
148436074000,-0.0703074528,-0.0511326888,0.11717908,-10.151415,-0.229843359,-2.09971486
148437081000,-0.0703074528,-0.0521979532,0.116113815,-10.1298672,-0.239420166,-2.11886847
148438087000,-0.0713727172,-0.0521979532,0.116113815,-10.1107136,-0.227449158,-2.15478149
148439093000,-0.0713727172,-0.0521979532,0.115048551,-10.1107136,-0.215478149,-2.19308872
148440099000,-0.0713727172,-0.0521979532,0.115048551,-10.1226846,-0.186747729,-2.21224233
148441105000,-0.0713727172,-0.0521979532,0.113983286,-10.1107136,-0.191536133,-2.21703074
148442112000,-0.0713727172,-0.0490021599,0.111852757,-10.0867716,-0.210689746,-2.22900175
148443118000,-0.0713727172,-0.0479368955,0.110787493,-10.0843774,-0.201112939,-2.25533796
148444124000,-0.0713727172,-0.0479368955,0.110787493,-10.0604354,-0.191536133,-2.26252057
148445130000,-0.0713727172,-0.0458063666,0.110787493,-10.0221281,-0.196324536,-2.27449158
148446136000,-0.0713727172,-0.0436758419,0.110787493,-10.0077629,-0.181959326,-2.29125099
148447142000,-0.0713727172,-0.0404800486,0.108656964,-9.97663832,-0.177170923,-2.29843359
148448149000,-0.0724379817,-0.0372842553,0.1075917,-9.9455137,-0.167594116,-2.32476981
148449155000,-0.0713727172,-0.0340884599,0.106526435,-9.91438907,-0.12928689,-2.33674082
148450161000,-0.0713727172,-0.0308926666,0.106526435,-9.87129344,-0.0885854614,-2.32237561
148451167000,-0.0703074528,-0.0276968733,0.105461171,-9.86171664,-0.0909796631,-2.32237561
148452173000,-0.0713727172,-0.0234358155,0.105461171,-9.85692823,-0.102950671,-2.33913502
148453179000,-0.0713727172,-0.0181094954,0.105461171,-9.80665,-0.0622492432,-2.35350023
148454186000,-0.0724379817,-0.0117179078,0.105461171,-9.78749639,-0.0383072266,-2.36307704
148455192000,-0.0735032461,-0.00532632218,0.105461171,-9.76834277,-0.0814028564,-2.34392343
148456198000,-0.0745685105,0.00106526437,0.105461171,-9.72764135,-0.0790086548,-2.32237561
148457204000,-0.0735032461,0.00745685053,0.105461171,-9.72045874,-0.0335188232,-2.35110603
148458210000,-0.0745685105,0.0159789655,0.104395906,-9.69651672,-0.0335188232,-2.37504805
148459217000,-0.0766990394,0.0245010799,0.104395906,-9.69651672,-0.0550666382,-2.36786544
148460223000,-0.0777643038,0.031957931,0.105461171,-9.73003555,-0.0694318481,-2.35589443
148461229000,-0.0788295683,0.0383495197,0.106526435,-9.70848773,-0.0622492432,-2.33913502
148462235000,-0.0798948327,0.0458063666,0.1075917,-9.71088193,-0.0598550415,-2.3127988
148463241000,-0.0798948327,0.0532632176,0.108656964,-9.73721815,-0.0670376465,-2.28406838
148464247000,-0.0809600971,0.0617853331,0.108656964,-9.73721815,-0.0478840332,-2.24815536
148465254000,-0.083090626,0.0681769197,0.1075917,-9.75158336,-0.0430956299,-2.21463654
148466260000,-0.0852211549,0.0735032461,0.1075917,-9.77313118,-0.0478840332,-2.18590612
148467266000,-0.0852211549,0.0777643038,0.1075917,-9.79467899,-0.0287304199,-2.1595699
148468272000,-0.0841558904,0.0820253616,0.108656964,-9.79228479,-0.0263362183,-2.14999309
148469278000,-0.083090626,0.0852211549,0.108656964,-9.7994674,-0.0215478149,-2.13083948
148470284000,-0.0841558904,0.0894822043,0.108656964,-9.82340941,-0.0119710083,-2.11886847
148471291000,-0.0841558904,0.093743262,0.1075917,-9.83538042,-0.0239420166,-2.11408007
148472297000,-0.0841558904,0.0958737909,0.106526435,-9.84016882,-0.0478840332,-2.09971486
148473303000,-0.0841558904,0.0969390554,0.106526435,-9.85453403,-0.0646434448,-2.05183082
148474309000,-0.0852211549,0.0980043198,0.105461171,-9.84974563,-0.0670376465,-1.99915839
148475315000,-0.0852211549,0.0990695842,0.105461171,-9.85453403,-0.0694318481,-2.00634099
148476322000,-0.0862864193,0.100134849,0.104395906,-9.87368765,-0.0718260498,-2.0207062
148477328000,-0.0862864193,0.101200113,0.103330642,-9.86889924,-0.0694318481,-2.018312
148478334000,-0.0852211549,0.101200113,0.103330642,-9.86889924,-0.0837970581,-2.03267721
148479340000,-0.0841558904,0.100134849,0.103330642,-9.89523546,-0.0861912598,-2.04464822
148480346000,-0.0820253616,0.100134849,0.102265378,-9.92636008,-0.0909796631,-2.06380183
148481352000,-0.0809600971,0.100134849,0.100134849,-9.93833109,-0.0957680664,-2.09253225
148482359000,-0.0798948327,0.0980043198,0.100134849,-9.96227311,-0.0861912598,-2.11168586
148483365000,-0.0777643038,0.0948085265,0.0990695842,-9.96466731,-0.0957680664,-2.10450326
148484371000,-0.0745685105,0.0905474687,0.0969390554,-9.96227311,-0.119710083,-2.11886847
148485377000,-0.0724379817,0.0862864193,0.0958737909,-9.97184991,-0.112527478,-2.13083948
148486383000,-0.0692421842,0.0809600971,0.0958737909,-9.9479079,-0.10055647,-2.14520469
148487389000,-0.0671116553,0.075633775,0.0958737909,-9.93593689,-0.1436521,-2.19787712
148488396000,-0.0628505976,0.0703074528,0.0958737909,-9.93593689,-0.15801731,-2.22900175
148489402000,-0.0575242754,0.063915862,0.0948085265,-9.90481227,-0.150834705,-2.28167418
148490408000,-0.0543284821,0.0585895398,0.093743262,-9.85932244,-0.155623108,-2.32716401
148491414000,-0.0521979532,0.0543284821,0.0916127332,-9.83298622,-0.174776721,-2.36786544
148492420000,-0.0490021599,0.0500674243,0.0894822043,-9.80665,-0.17238252,-2.43490309
148493427000,-0.0458063666,0.046871631,0.0894822043,-9.74918916,-0.17238252,-2.49715233
148494433000,-0.0447411022,0.0458063666,0.0894822043,-9.69412252,-0.191536133,-2.54024796
148495439000,-0.041545313,0.0436758419,0.0884169399,-9.6558153,-0.189141931,-2.58813199
148496445000,-0.0372842553,0.041545313,0.0894822043,-9.61271967,-0.213083948,-2.66474645
148497451000,-0.0308926666,0.0383495197,0.0884169399,-9.56004723,-0.225054956,-2.71741888
148498457000,-0.0255663444,0.0372842553,0.0862864193,-9.50498059,-0.213083948,-2.7413609
148499464000,-0.0234358155,0.0372842553,0.0852211549,-9.44512555,-0.208295544,-2.78206233
148500470000,-0.0213052887,0.0372842553,0.0841558904,-9.3732995,-0.222660754,-2.84670577
148501476000,-0.0159789655,0.0362189908,0.0852211549,-9.29907925,-0.284909998,-2.90895502
148502482000,-0.0106526444,0.0362189908,0.0841558904,-9.24640681,-0.349553442,-3.01429989
148503488000,-0.00532632218,0.0372842553,0.0820253616,-9.20570538,-0.339976636,-3.09570275
148504495000,-0.00106526437,0.0372842553,0.0809600971,-9.14345614,-0.311246216,-3.13400997
148505501000,0.00319579305,0.0362189908,0.0788295683,-9.05247648,-0.289698401,-3.1723172
148506507000,0.0063915861,0.0372842553,0.0777643038,-8.97107362,-0.311246216,-3.22259543
148507513000,0.00958737992,0.0383495197,0.0766990394,-8.91121858,-0.320823022,-3.3183635
148508519000,0.0127831722,0.041545313,0.075633775,-8.83699833,-0.306457812,-3.40934316
148509525000,0.0181094954,0.0458063666,0.0724379817,-8.76038387,-0.328005627,-3.52426484
148510532000,0.0234358155,0.0511326888,0.0713727172,-8.69095203,-0.342370837,-3.62242711
148511538000,0.0276968733,0.0575242754,0.0703074528,-8.63827959,-0.318428821,-3.70382997
148512544000,0.031957931,0.0649811264,0.0703074528,-8.59518396,-0.325611426,-3.77805022
148513550000,0.0362189908,0.0713727172,0.0681769197,-8.55208833,-0.335188232,-3.79241543
148514556000,0.0404800486,0.0766990394,0.0671116553,-8.5113869,-0.311246216,-3.83790526
148515562000,0.0458063666,0.083090626,0.0660463909,-8.43956085,-0.296881006,-3.8905777
148516569000,0.0490021599,0.0905474687,0.0660463909,-8.39885942,-0.282515796,-3.92888492
148517575000,0.0543284821,0.0969390554,0.063915862,-8.41561884,-0.263362183,-3.97676896
148518581000,0.0585895398,0.101200113,0.0628505976,-8.39167682,-0.234631763,-4.0414124
148519587000,0.0607200687,0.1075917,0.0617853331,-8.33182178,-0.210689746,-4.12281526
148520593000,0.0628505976,0.112918022,0.0617853331,-8.30787976,-0.201112939,-4.17069929
148521600000,0.063915862,0.119309609,0.0617853331,-8.30309136,-0.210689746,-4.20661232
148522606000,0.063915862,0.128896988,0.0607200687,-8.30548556,-0.227449158,-4.1874587
148523612000,0.0649811264,0.136353839,0.0596548043,-8.28393774,-0.270544788,-4.21379492
148524618000,0.0671116553,0.143810699,0.0585895398,-8.27196674,-0.320823022,-4.35026442
148525624000,0.0703074528,0.149137021,0.0585895398,-8.26717833,-0.325611426,-4.47955131
148526630000,0.0724379817,0.155528608,0.0575242754,-8.25520732,-0.325611426,-4.60165559
148527637000,0.075633775,0.164050723,0.0575242754,-8.2264769,-0.332794031,-4.68305845
148528643000,0.0788295683,0.172572839,0.0575242754,-8.20253489,-0.320823022,-4.71178887
148529649000,0.0820253616,0.182160202,0.0564590109,-8.23365951,-0.313640417,-4.70221206
148530655000,0.0852211549,0.191747582,0.0564590109,-8.27914934,-0.368707056,-4.73812509
148531661000,0.0905474687,0.200269697,0.0553937465,-8.31745657,-0.373495459,-4.71897147
148532667000,0.0958737909,0.208791813,0.0543284821,-8.29590875,-0.328005627,-4.70221206
148533674000,0.100134849,0.216248664,0.0532632176,-8.29112035,-0.311246216,-4.69502946
148534680000,0.102265378,0.22264025,0.0532632176,-8.31266816,-0.320823022,-4.64953962
148535686000,0.105461171,0.226901308,0.0521979532,-8.34858119,-0.390254871,-4.69263525
148536692000,0.108656964,0.231162366,0.0511326888,-8.37252321,-0.392649072,-4.69263525
148537698000,0.111852757,0.236488688,0.0490021599,-8.34858119,-0.402225879,-4.67587584
148538705000,0.113983286,0.238619217,0.0479368955,-8.3605522,-0.435744702,-4.73812509
148539711000,0.116113815,0.240749746,0.046871631,-8.34379279,-0.399831677,-4.74770189
148540717000,0.119309609,0.243945539,0.0458063666,-8.35576379,-0.392649072,-4.79558593
148541723000,0.121440137,0.245010804,0.0436758419,-8.32463917,-0.359130249,-4.88895979
148542729000,0.124635931,0.247141333,0.0426105774,-8.28872615,-0.325611426,-4.77403811
148543735000,0.127831724,0.249271861,0.0404800486,-8.31027396,-0.318428821,-4.69024105
148544742000,0.128896988,0.250337126,0.0394147841,-8.29351455,-0.313640417,-4.84346996
148545748000,0.132092782,0.25140239,0.0383495197,-8.25999573,-0.316034619,-4.91529601
148546754000,0.136353839,0.255663448,0.0372842553,-8.23844791,-0.368707056,-4.93444962
148547760000,0.140614906,0.259924506,0.0362189908,-8.20492909,-0.378283862,-4.97036265
148548766000,0.145941228,0.263120299,0.0340884599,-8.18098707,-0.282515796,-5.0445829
148549773000,0.150202285,0.266316092,0.0330231954,-8.18338127,-0.277727393,-5.10204374
148550779000,0.152332814,0.268446621,0.0330231954,-8.2216885,-0.368707056,-5.01345828
148551785000,0.155528608,0.269511886,0.0330231954,-8.25281312,-0.414196887,-4.96318004
148552791000,0.158724401,0.268446621,0.0330231954,-8.24323632,-0.378283862,-4.87938298
148553797000,0.164050723,0.264185563,0.0330231954,-8.26717833,-0.337582434,-4.77643231
148554803000,0.168311781,0.259924506,0.0308926666,-8.25041892,-0.265756384,-4.70939467
148555810000,0.171507574,0.257793977,0.0298274021,-8.25999573,-0.208295544,-4.7572787
148556816000,0.173638103,0.256728712,0.0287621377,-8.26478413,-0.220266553,-4.84107576
148557822000,0.174703368,0.255663448,0.0276968733,-8.26717833,-0.260967981,-4.79558593
148558828000,0.174703368,0.254598184,0.0287621377,-8.29351455,-0.277727393,-4.74291349
148559834000,0.174703368,0.252467655,0.0276968733,-8.3605522,-0.318428821,-4.66151063
148560840000,0.173638103,0.249271861,0.0245010799,-8.40125363,-0.301669409,-4.57531937
148561847000,0.171507574,0.246076068,0.0223705511,-8.39167682,-0.239420166,-4.31435139
148562853000,0.17044231,0.239684481,0.0223705511,-8.40843623,-0.213083948,-4.22576593
148563859000,0.168311781,0.234358159,0.0213052887,-8.39407102,-0.256179578,-4.46039769
148564865000,0.167246516,0.227966573,0.0191747598,-8.44195505,-0.289698401,-4.4699745
148565871000,0.167246516,0.22264025,0.0159789655,-8.45392606,-0.270544788,-4.41490786
148566878000,0.167246516,0.217313928,0.0138484366,-8.47786808,-0.287304199,-4.26886156
148567884000,0.165115988,0.209857077,0.0138484366,-8.5089927,-0.282515796,-4.20182391
148568890000,0.165115988,0.201334962,0.0138484366,-8.58081875,-0.272938989,-4.15393988
148569896000,0.164050723,0.194943375,0.0117179078,-8.68137522,-0.294486804,-4.08450803
148570902000,0.165115988,0.187486524,0.00958737992,-8.72207665,-0.378283862,-3.95761534
148571908000,0.166181252,0.178964409,0.0063915861,-8.71968245,-0.478840332,-4.02225879
148572915000,0.168311781,0.168311781,0.00426105748,-8.77714329,-0.430956299,-3.86184728
148573921000,0.169377045,0.156593872,0.00213052874,-8.82263312,-0.282515796,-3.58890829
148574927000,0.166181252,0.145941228,-0.00106526437,-8.83939253,-0.248996973,-3.66791694
148575933000,0.161920194,0.136353839,-0.00319579305,-8.89206497,-0.323217224,-3.65115753
148576939000,0.16085493,0.127831724,-0.00532632218,-8.89924757,-0.280121594,-3.454833
148577946000,0.158724401,0.121440137,-0.00852211497,-8.939949,-0.136469495,-3.25372006
148578952000,0.154463343,0.115048551,-0.0117179078,-8.99501564,-0.181959326,-3.40455476
148579958000,0.149137021,0.108656964,-0.0138484366,-9.05487068,-0.237025964,-3.36145913
148580964000,0.143810699,0.102265378,-0.0170442299,-9.13387933,-0.179565125,-3.15555779
148581970000,0.137419104,0.093743262,-0.0202400243,-9.21049379,-0.189141931,-3.04781871
148582976000,0.129962253,0.0852211549,-0.0245010799,-9.2272532,-0.220266553,-2.94247384
148583983000,0.123570666,0.0745685105,-0.0287621377,-9.21288799,-0.210689746,-2.96402166
148584989000,0.120374873,0.0628505976,-0.031957931,-9.28231984,-0.169988318,-2.91613762
148585995000,0.115048551,0.0521979532,-0.0351537264,-9.30865605,-0.169988318,-2.84431157
148587001000,0.110787493,0.0426105774,-0.0372842553,-9.28710824,-0.126892688,-2.83712897
148588007000,0.105461171,0.0340884599,-0.0383495197,-9.27992563,-0.0646434448,-2.77727393
148589013000,0.101200113,0.0287621377,-0.0404800486,-9.29668505,-0.0718260498,-2.77966813
148590020000,0.0969390554,0.0234358155,-0.0426105774,-9.34696328,-0.122104285,-2.83952317
148591026000,0.0916127332,0.0181094954,-0.0447411022,-9.32541547,-0.126892688,-2.74854351
148592032000,0.0862864193,0.0117179078,-0.046871631,-9.33978068,-0.119710083,-2.62643922
148593038000,0.0841558904,0.00745685053,-0.0479368955,-9.35175168,-0.117315881,-2.61925662
148594044000,0.0809600971,0.00426105748,-0.046871631,-9.40442412,-0.138863696,-2.68629426
148595051000,0.0788295683,0,-0.0458063666,-9.43076034,-0.167594116,-2.58094939
148596057000,0.075633775,-0.00532632218,-0.0458063666,-9.40921252,-0.105344873,-2.39420166
148597063000,0.0703074528,-0.0106526444,-0.046871631,-9.44273135,-0.0837970581,-2.43011469
148598069000,0.0660463909,-0.0127831722,-0.046871631,-9.50498059,-0.126892688,-2.48278712
148599075000,0.063915862,-0.0138484366,-0.0479368955,-9.5121632,-0.15801731,-2.41096107
148600081000,0.0607200687,-0.0138484366,-0.0511326888,-9.50498059,-0.155623108,-2.23618435
148601088000,0.0575242754,-0.0138484366,-0.0543284821,-9.55047042,-0.126892688,-2.18111771
148602094000,0.0543284821,-0.0138484366,-0.0564590109,-9.58398925,-0.0670376465,-2.19548292
148603100000,0.0500674243,-0.0138484366,-0.0564590109,-9.59596025,-0.0526724365,-2.19308872
148604106000,0.0447411022,-0.0138484366,-0.0564590109,-9.56962404,-0.0933738647,-2.17872351
148605112000,0.0383495197,-0.0127831722,-0.0585895398,-9.61511387,-0.167594116,-2.20745393
148606118000,0.0330231954,-0.0127831722,-0.0596548043,-9.62469067,-0.165199915,-2.08056124
148607125000,0.0287621377,-0.0149137011,-0.0596548043,-9.57441244,-0.220266553,-2.09253225
148608131000,0.0276968733,-0.0170442299,-0.0585895398,-9.61990227,-0.335188232,-2.13562788
148609137000,0.0276968733,-0.0181094954,-0.0585895398,-9.6558153,-0.256179578,-2.07816704
148610143000,0.0276968733,-0.0191747598,-0.0596548043,-9.6606037,-0.227449158,-2.24576116
148611149000,0.0266316088,-0.0202400243,-0.0596548043,-9.65342109,-0.263362183,-2.32476981
148612156000,0.0255663444,-0.0202400243,-0.0585895398,-9.60793126,-0.232237561,-2.22900175
148613162000,0.0255663444,-0.0181094954,-0.0585895398,-9.61032546,-0.253785376,-2.28167418
148614168000,0.0276968733,-0.0159789655,-0.0575242754,-9.65102689,-0.311246216,-2.42532628
148615174000,0.0287621377,-0.0149137011,-0.0585895398,-9.68693992,-0.409408484,-2.48757552
148616180000,0.0287621377,-0.0138484366,-0.0607200687,-9.67736311,-0.397437476,-2.42293208
148617186000,0.0308926666,-0.0127831722,-0.0628505976,-9.65102689,-0.387860669,-2.37265385
148618193000,0.0340884599,-0.0117179078,-0.0649811264,-9.68933412,-0.495599744,-2.52109435
148619199000,0.0372842553,-0.00958737992,-0.0660463909,-9.72285294,-0.579396802,-2.65995804
148620205000,0.0394147841,-0.00852211497,-0.0692421842,-9.68215151,-0.644040247,-2.70784208
148621211000,0.0458063666,-0.0106526444,-0.0724379817,-9.64384429,-0.62009823,-2.73178409
148622217000,0.0532632176,-0.0127831722,-0.0745685105,-9.62708488,-0.553060583,-2.70544788
148623224000,0.0585895398,-0.0149137011,-0.075633775,-9.62708488,-0.514753357,-2.67911166
148624230000,0.063915862,-0.0149137011,-0.075633775,-9.56962404,-0.502782349,-2.7365725
148625236000,0.0681769197,-0.0149137011,-0.0766990394,-9.47385597,-0.478840332,-2.98556947
148626242000,0.0724379817,-0.0117179078,-0.0788295683,-9.44751975,-0.426167896,-3.14598098
148627248000,0.0788295683,-0.00745685053,-0.0809600971,-9.41639513,-0.416591089,-3.04303031
148628254000,0.0841558904,-0.00319579305,-0.0820253616,-9.44512555,-0.423773694,-2.91613762
148629261000,0.0873516838,0.00213052874,-0.083090626,-9.42836614,-0.409408484,-2.73178409
148630267000,0.0894822043,0.00958737992,-0.0852211549,-9.36372269,-0.399831677,-2.72460149
148631273000,0.0873516838,0.0149137011,-0.0862864193,-9.35654009,-0.407014282,-2.82755216
148632279000,0.0862864193,0.0191747598,-0.0884169399,-9.35175168,-0.349553442,-2.77009132
148633285000,0.0862864193,0.0255663444,-0.0905474687,-9.33259807,-0.289698401,-2.7413609
148634291000,0.0841558904,0.0351537264,-0.0926779976,-9.33020387,-0.253785376,-2.76290872
148635298000,0.0809600971,0.0436758419,-0.0926779976,-9.34935748,-0.215478149,-2.7413609
148636304000,0.0809600971,0.0521979532,-0.093743262,-9.31105026,-0.117315881,-2.72699569
148637310000,0.0809600971,0.0596548043,-0.0948085265,-9.31583866,-0.0885854614,-2.67671746
148638316000,0.0798948327,0.0671116553,-0.093743262,-9.39724152,-0.17238252,-2.66714065
148639322000,0.0788295683,0.0724379817,-0.0926779976,-9.41639513,-0.189141931,-2.68629426
148640329000,0.0809600971,0.075633775,-0.093743262,-9.43076034,-0.193930334,-2.67432325
148641335000,0.0852211549,0.0745685105,-0.093743262,-9.48582698,-0.138863696,-2.69108267
148642341000,0.0905474687,0.0735032461,-0.093743262,-9.47146177,-0.160411511,-2.55700737
148643347000,0.0969390554,0.075633775,-0.0926779976,-9.48582698,-0.153228906,-2.53067115
148644353000,0.102265378,0.0777643038,-0.0905474687,-9.56962404,-0.112527478,-2.69587107
148645359000,0.108656964,0.0777643038,-0.0884169399,-9.59117185,-0.12928689,-2.57137258
148646366000,0.113983286,0.0766990394,-0.0873516838,-9.65102689,-0.167594116,-2.38223065
148647372000,0.120374873,0.0777643038,-0.0862864193,-9.78510219,-0.217872351,-2.3127988
148648378000,0.124635931,0.0788295683,-0.0873516838,-9.85453403,-0.296881006,-2.24815536
148649384000,0.125701195,0.075633775,-0.0884169399,-9.8090442,-0.371101257,-2.40856687
148650390000,0.12676646,0.0713727172,-0.0894822043,-9.83538042,-0.378283862,-2.50912334
148651397000,0.129962253,0.0681769197,-0.0905474687,-9.86889924,-0.397437476,-2.3056162
148652403000,0.132092782,0.0649811264,-0.0926779976,-9.88565865,-0.457292517,-2.31998141
148653409000,0.134223311,0.063915862,-0.0948085265,-9.92396588,-0.524330164,-2.41335527
148654415000,0.140614906,0.063915862,-0.0980043198,-9.99818613,-0.550666382,-2.34871183
148655421000,0.149137021,0.0607200687,-0.102265378,-9.98621512,-0.507570752,-2.36786544
148656427000,0.155528608,0.0543284821,-0.106526435,-9.90960067,-0.450109912,-2.64319863
148657434000,0.161920194,0.0500674243,-0.109722229,-9.87847605,-0.390254871,-2.7365725
148658440000,0.169377045,0.046871631,-0.110787493,-9.91199487,-0.387860669,-2.60489141
148659446000,0.17683388,0.0436758419,-0.111852757,-9.99579193,-0.399831677,-2.53067115
148660452000,0.184290731,0.0394147841,-0.112918022,-9.9574847,-0.373495459,-2.60967981
148661458000,0.187486524,0.0340884599,-0.112918022,-10.0053687,-0.414196887,-2.63841023
148662464000,0.189617053,0.0276968733,-0.115048551,-10.0604354,-0.399831677,-2.4444799
148663471000,0.190682317,0.0223705511,-0.11717908,-9.96945571,-0.366312854,-2.4564509
148664477000,0.190682317,0.0181094954,-0.119309609,-9.88087025,-0.342370837,-2.53785376
148665483000,0.189617053,0.0149137011,-0.120374873,-9.86889924,-0.287304199,-2.64319863
148666489000,0.18642126,0.0117179078,-0.122505402,-9.83298622,-0.244208569,-2.71981309
148667495000,0.183225466,0.0106526444,-0.123570666,-9.74679496,-0.213083948,-2.7413609
148668502000,0.181094937,0.0117179078,-0.124635931,-9.68933412,-0.220266553,-2.76290872
148669508000,0.178964409,0.0138484366,-0.124635931,-9.76355437,-0.287304199,-2.66235225
148670514000,0.175768615,0.0149137011,-0.125701195,-9.88087025,-0.260967981,-2.62404502
148671520000,0.172572839,0.0149137011,-0.12676646,-9.86171664,-0.136469495,-2.65516964
148672526000,0.17044231,0.00958737992,-0.12676646,-9.84974563,-0.0885854614,-2.65038124
148673532000,0.168311781,0.00426105748,-0.125701195,-9.88087025,-0.0646434448,-2.72220729
148674539000,0.165115988,0,-0.125701195,-9.88326445,-0.0526724365,-2.6024972
148675545000,0.162985459,-0.00213052874,-0.124635931,-9.90002386,-0.0670376465,-2.4516625
148676551000,0.161920194,-0.00532632218,-0.123570666,-9.84256302,-0.153228906,-2.43969149
148677557000,0.162985459,-0.0127831722,-0.121440137,-9.84016882,-0.208295544,-2.50194073
148678563000,0.162985459,-0.0213052887,-0.120374873,-9.84016882,-0.12928689,-2.55221897
148679569000,0.16085493,-0.0287621377,-0.119309609,-9.8018616,-0.0598550415,-2.61446821
148680576000,0.158724401,-0.0330231954,-0.118244344,-9.79707319,-0.0622492432,-2.62643922
148681582000,0.155528608,-0.0351537264,-0.11717908,-9.79707319,-0.0909796631,-2.54982477
148682588000,0.15126755,-0.0383495197,-0.115048551,-9.82819781,-0.10055647,-2.43729729
148683594000,0.145941228,-0.0436758419,-0.112918022,-9.83777462,-0.148440503,-2.38462485
148684600000,0.140614906,-0.0490021599,-0.112918022,-9.83298622,-0.196324536,-2.42772048
148685607000,0.134223311,-0.0532632176,-0.113983286,-9.83777462,-0.191536133,-2.39659586
148686613000,0.128896988,-0.0585895398,-0.115048551,-9.81622681,-0.210689746,-2.36307704
148687619000,0.123570666,-0.0649811264,-0.115048551,-9.72524714,-0.222660754,-2.47321031
148688625000,0.123570666,-0.0703074528,-0.112918022,-9.70609353,-0.253785376,-2.58094939
148689631000,0.12676646,-0.0724379817,-0.110787493,-9.73003555,-0.318428821,-2.72460149
148690637000,0.128896988,-0.075633775,-0.108656964,-9.6629979,-0.306457812,-2.77966813
148691644000,0.132092782,-0.0788295683,-0.1075917,-9.61750807,-0.256179578,-2.69587107
148692650000,0.136353839,-0.0798948327,-0.103330642,-9.69651672,-0.246602771,-2.5929204
148693656000,0.142745434,-0.083090626,-0.0990695842,-9.8018616,-0.253785376,-2.39659586
148694662000,0.149137021,-0.0894822043,-0.0948085265,-9.81622681,-0.253785376,-2.46602771
148695668000,0.153398079,-0.0969390554,-0.0905474687,-9.8018616,-0.318428821,-2.51151754
148696675000,0.157659137,-0.103330642,-0.0862864193,-9.85692823,-0.442927307,-2.29843359
148697681000,0.162985459,-0.108656964,-0.0841558904,-9.87608185,-0.421379492,-2.1643583
148698687000,0.166181252,-0.116113815,-0.0820253616,-9.78510219,-0.368707056,-2.23379015
148699693000,0.166181252,-0.123570666,-0.0788295683,-9.72524714,-0.426167896,-2.28406838
148700699000,0.166181252,-0.128896988,-0.0766990394,-9.70369933,-0.474051929,-2.37025964
148701705000,0.167246516,-0.132092782,-0.0745685105,-9.73961235,-0.514753357,-2.37504805
148702712000,0.167246516,-0.133158046,-0.0724379817,-9.74679496,-0.46208092,-2.31519301
148703718000,0.167246516,-0.135288575,-0.0703074528,-9.70369933,-0.493205542,-2.35828864
148704724000,0.166181252,-0.138484368,-0.0692421842,-9.71806454,-0.54827218,-2.28885679
148705730000,0.165115988,-0.139549633,-0.0681769197,-9.67496891,-0.54827218,-2.35350023
148706736000,0.166181252,-0.140614906,-0.0681769197,-9.61990227,-0.524330164,-2.34152922
148707742000,0.166181252,-0.142745434,-0.0660463909,-9.58877765,-0.469263525,-2.26730897
148708749000,0.168311781,-0.143810699,-0.063915862,-9.60793126,-0.457292517,-2.37744225
148709755000,0.171507574,-0.14168017,-0.0617853331,-9.60793126,-0.493205542,-2.50433494
148710761000,0.173638103,-0.14168017,-0.0585895398,-9.55525883,-0.59136781,-2.51870015
148711767000,0.17683388,-0.142745434,-0.0564590109,-9.49300958,-0.586579407,-2.39659586
148712773000,0.182160202,-0.140614906,-0.0553937465,-9.54089362,-0.543483777,-2.38462485
148713780000,0.187486524,-0.139549633,-0.0543284821,-9.63426748,-0.526724365,-2.25533796
148714786000,0.190682317,-0.139549633,-0.0532632176,-9.60793126,-0.555454785,-2.28646259
148715792000,0.191747582,-0.139549633,-0.0532632176,-9.62229647,-0.572214197,-2.35350023
148716798000,0.193878111,-0.140614906,-0.0543284821,-9.65342109,-0.469263525,-2.24815536
148717804000,0.194943375,-0.14168017,-0.0564590109,-9.6629979,-0.435744702,-2.17393511
148718810000,0.191747582,-0.142745434,-0.0585895398,-9.61511387,-0.469263525,-2.1571757
148719817000,0.187486524,-0.143810699,-0.0607200687,-9.57201824,-0.500388147,-2.24097275
148720823000,0.185355995,-0.144875963,-0.0617853331,-9.57680664,-0.51954176,-2.33674082
148721829000,0.184290731,-0.147006492,-0.0628505976,-9.54807622,-0.49081134,-2.43729729
148722835000,0.184290731,-0.147006492,-0.063915862,-9.52174,-0.454898315,-2.4516625
148723841000,0.185355995,-0.144875963,-0.0649811264,-9.49540378,-0.359130249,-2.42053788
148724848000,0.185355995,-0.143810699,-0.0671116553,-9.45949076,-0.306457812,-2.50433494
148725854000,0.183225466,-0.144875963,-0.0681769197,-9.40442412,-0.354341846,-2.5953146
148726860000,0.182160202,-0.142745434,-0.0681769197,-9.38287631,-0.313640417,-2.5905262
148727866000,0.181094937,-0.138484368,-0.0681769197,-9.3780879,-0.256179578,-2.51391174
148728872000,0.180029673,-0.134223311,-0.0671116553,-9.35654009,-0.263362183,-2.600103
148729878000,0.17683388,-0.129962253,-0.0660463909,-9.3756937,-0.320823022,-2.69108267
148730885000,0.173638103,-0.12676646,-0.0660463909,-9.34217488,-0.328005627,-2.60489141
148731891000,0.172572839,-0.122505402,-0.0660463909,-9.27753143,-0.268150586,-2.67192905
148732897000,0.173638103,-0.118244344,-0.0671116553,-9.33738647,-0.181959326,-2.71741888
148733903000,0.173638103,-0.113983286,-0.0649811264,-9.40442412,-0.174776721,-2.71023628
148734909000,0.173638103,-0.110787493,-0.0607200687,-9.42357773,-0.253785376,-2.72460149
148735915000,0.172572839,-0.108656964,-0.0575242754,-9.43076034,-0.275333191,-2.68629426
148736922000,0.173638103,-0.1075917,-0.0553937465,-9.50019219,-0.277727393,-2.66953485
148737928000,0.174703368,-0.108656964,-0.0553937465,-9.5241342,-0.234631763,-2.70065947
148738934000,0.175768615,-0.1075917,-0.0543284821,-9.56483563,-0.215478149,-2.67432325
148739940000,0.17683388,-0.1075917,-0.0521979532,-9.61511387,-0.210689746,-2.63122762
148740946000,0.174703368,-0.108656964,-0.0500674243,-9.57920084,-0.184353528,-2.63362183
148741953000,0.172572839,-0.108656964,-0.0490021599,-9.61271967,-0.167594116,-2.58094939
148742959000,0.17044231,-0.110787493,-0.0490021599,-9.65342109,-0.117315881,-2.54024796
148743965000,0.169377045,-0.111852757,-0.046871631,-9.67736311,-0.119710083,-2.61446821
148744971000,0.166181252,-0.111852757,-0.0447411022,-9.68693992,-0.15801731,-2.70305367
148745977000,0.162985459,-0.111852757,-0.0426105774,-9.72524714,-0.15801731,-2.65516964
148746983000,0.161920194,-0.112918022,-0.0404800486,-9.73721815,-0.160411511,-2.53545956
148747990000,0.161920194,-0.113983286,-0.0394147841,-9.70848773,-0.126892688,-2.53545956
148748996000,0.159789665,-0.113983286,-0.0383495197,-9.71806454,-0.102950671,-2.50433494
148750002000,0.155528608,-0.111852757,-0.0351537264,-9.73242975,-0.141257898,-2.53545956
148751008000,0.152332814,-0.109722229,-0.031957931,-9.76834277,-0.198718738,-2.70544788
148752014000,0.149137021,-0.108656964,-0.0298274021,-9.7994674,-0.217872351,-2.68868846
148753020000,0.148071757,-0.109722229,-0.0287621377,-9.78510219,-0.220266553,-2.67192905
148754027000,0.147006492,-0.111852757,-0.0287621377,-9.75876597,-0.323217224,-2.7365725
148755033000,0.148071757,-0.111852757,-0.0287621377,-9.76834277,-0.404620081,-2.81558115
148756039000,0.152332814,-0.112918022,-0.0276968733,-9.77552538,-0.397437476,-2.78685073
148757045000,0.156593872,-0.116113815,-0.0276968733,-9.73961235,-0.387860669,-2.70305367
148758051000,0.158724401,-0.119309609,-0.0255663444,-9.75637177,-0.378283862,-2.66235225
148759058000,0.159789665,-0.122505402,-0.0245010799,-9.79228479,-0.380678064,-2.5905262
148760064000,0.158724401,-0.123570666,-0.0223705511,-9.77313118,-0.368707056,-2.52109435
148761070000,0.157659137,-0.123570666,-0.0223705511,-9.74679496,-0.339976636,-2.50194073
148762076000,0.156593872,-0.123570666,-0.0234358155,-9.78989059,-0.330399829,-2.4468741
148763082000,0.154463343,-0.123570666,-0.0234358155,-9.78749639,-0.359130249,-2.40617267
148764088000,0.150202285,-0.122505402,-0.0234358155,-9.75637177,-0.383072266,-2.48518132
148765095000,0.147006492,-0.120374873,-0.0234358155,-9.76594857,-0.373495459,-2.43969149
148766101000,0.144875963,-0.118244344,-0.0234358155,-9.75397756,-0.395043274,-2.4540567
148767107000,0.143810699,-0.116113815,-0.0234358155,-9.77073698,-0.459686719,-2.49236393
148768113000,0.144875963,-0.115048551,-0.0213052887,-9.79467899,-0.459686719,-2.36307704
148769119000,0.144875963,-0.113983286,-0.0181094954,-9.84256302,-0.385466467,-2.27449158
148770126000,0.145941228,-0.11717908,-0.0159789655,-9.88087025,-0.318428821,-2.27209738
148771132000,0.148071757,-0.118244344,-0.0149137011,-9.89523546,-0.253785376,-2.28406838
148772138000,0.150202285,-0.11717908,-0.0149137011,-9.92875428,-0.184353528,-2.26970317
148773144000,0.150202285,-0.116113815,-0.0138484366,-9.94311949,-0.134075293,-2.22421334
148774150000,0.149137021,-0.115048551,-0.0138484366,-9.90960067,-0.110133276,-2.22660754
148775156000,0.149137021,-0.112918022,-0.0149137011,-9.92157168,-0.0861912598,-2.23857855
148776163000,0.150202285,-0.110787493,-0.0149137011,-9.9574847,-0.0933738647,-2.22421334
148777169000,0.149137021,-0.111852757,-0.0159789655,-9.98142672,-0.160411511,-2.22900175
148778175000,0.143810699,-0.112918022,-0.0159789655,-10.0197339,-0.222660754,-2.20984813
148779181000,0.139549633,-0.115048551,-0.0181094954,-10.0053687,-0.263362183,-2.20505973
148780187000,0.138484368,-0.115048551,-0.0191747598,-9.98621512,-0.263362183,-2.26970317
148781193000,0.137419104,-0.113983286,-0.0213052887,-10.0005803,-0.282515796,-2.40617267
148782200000,0.136353839,-0.112918022,-0.0223705511,-9.97184991,-0.304063611,-2.5905262
148783206000,0.134223311,-0.111852757,-0.0234358155,-9.90241807,-0.280121594,-2.57616099
148784212000,0.134223311,-0.109722229,-0.0223705511,-9.84256302,-0.213083948,-2.48757552
148785218000,0.137419104,-0.1075917,-0.0191747598,-9.85932244,-0.181959326,-2.51391174
148786224000,0.138484368,-0.105461171,-0.0149137011,-9.90241807,-0.222660754,-2.50672914
148787231000,0.138484368,-0.102265378,-0.0117179078,-9.93114849,-0.248996973,-2.51151754
148788237000,0.138484368,-0.102265378,-0.0106526444,-9.98621512,-0.258573779,-2.53545956
148789243000,0.139549633,-0.101200113,-0.0106526444,-9.99579193,-0.237025964,-2.54503636
148790249000,0.139549633,-0.101200113,-0.00958737992,-9.98621512,-0.186747729,-2.46842191
148791255000,0.142745434,-0.0990695842,-0.00745685053,-9.98860933,-0.117315881,-2.38462485
148792261000,0.143810699,-0.0980043198,-0.00426105748,-9.99818613,-0.0981622681,-2.36307704
148793268000,0.143810699,-0.0980043198,-0.00319579305,-10.043676,-0.126892688,-2.39899006
148794274000,0.142745434,-0.0990695842,-0.00319579305,-10.103531,-0.136469495,-2.4564509
148795280000,0.143810699,-0.100134849,-0.00213052874,-10.1059252,-0.150834705,-2.46842191
148796286000,0.144875963,-0.102265378,-0.00106526437,-10.0652238,-0.155623108,-2.4444799
148797292000,0.144875963,-0.104395906,0,-10.0748006,-0.160411511,-2.43250889
148798299000,0.142745434,-0.105461171,0.00106526437,-10.0891658,-0.15801731,-2.4468741
148799305000,0.142745434,-0.106526435,0.00213052874,-10.0484644,-0.112527478,-2.40856687
148800311000,0.142745434,-0.109722229,0.00319579305,-10.0532528,-0.0742202515,-2.38223065
148801317000,0.14168017,-0.112918022,0.00426105748,-10.1011368,-0.0383072266,-2.41096107
148802323000,0.138484368,-0.111852757,0.00532632218,-10.1298672,0.0359130249,-2.39180746
148803329000,0.134223311,-0.111852757,0.0063915861,-10.163386,0.0790086548,-2.31519301
148804336000,0.131027517,-0.112918022,0.00426105748,-10.1418382,0.105344873,-2.29125099
148805342000,0.127831724,-0.115048551,0.00213052874,-10.1298672,0.110133276,-2.32237561
148806348000,0.125701195,-0.116113815,0,-10.1538092,0.0933738647,-2.33674082
148807354000,0.123570666,-0.11717908,0,-10.1562034,0.0837970581,-2.32476981
148808360000,0.120374873,-0.119309609,0.00106526437,-10.1131078,0.0957680664,-2.28885679
148809366000,0.11717908,-0.122505402,-0.00106526437,-10.0819832,0.117315881,-2.26730897
148810373000,0.112918022,-0.127831724,-0.00213052874,-10.0724064,0.11492168,-2.32716401
148811379000,0.108656964,-0.131027517,-0.00213052874,-10.0412818,0.119710083,-2.36786544
148812385000,0.105461171,-0.134223311,-0.00213052874,-10.0005803,0.110133276,-2.34392343
148813391000,0.102265378,-0.138484368,-0.00319579305,-9.96227311,0.112527478,-2.36068284
148814397000,0.0990695842,-0.140614906,-0.00319579305,-9.94311949,0.136469495,-2.36786544
148815404000,0.0948085265,-0.14168017,-0.00319579305,-9.91199487,0.215478149,-2.37744225
148816410000,0.0905474687,-0.142745434,-0.00106526437,-9.89523546,0.268150586,-2.41814368
148817416000,0.0862864193,-0.143810699,0,-9.85692823,0.248996973,-2.37025964
148818422000,0.0820253616,-0.142745434,0,-9.82101521,0.244208569,-2.33674082
148819428000,0.075633775,-0.143810699,-0.00106526437,-9.80665,0.222660754,-2.41335527
148820434000,0.0724379817,-0.144875963,-0.00213052874,-9.78031378,0.203507141,-2.46842191
148821441000,0.0692421842,-0.145941228,-0.00213052874,-9.75637177,0.229843359,-2.46123931
148822447000,0.0660463909,-0.147006492,-0.00106526437,-9.71806454,0.299275208,-2.35110603
148823453000,0.0617853331,-0.147006492,0.00106526437,-9.68933412,0.328005627,-2.32237561
148824459000,0.0585895398,-0.147006492,0.00319579305,-9.68454572,0.313640417,-2.42532628
148825465000,0.0553937465,-0.149137021,0.00532632218,-9.68215151,0.318428821,-2.4540567
148826472000,0.0511326888,-0.150202285,0.00745685053,-9.6629979,0.299275208,-2.43969149
148827478000,0.046871631,-0.152332814,0.00958737992,-9.63666168,0.241814368,-2.41574948
148828484000,0.0436758419,-0.156593872,0.0117179078,-9.61750807,0.253785376,-2.35350023
148829490000,0.0394147841,-0.158724401,0.0138484366,-9.61511387,0.296881006,-2.29603939
148830496000,0.0362189908,-0.161920194,0.0170442299,-9.59356605,0.320823022,-2.28167418
148831502000,0.0330231954,-0.164050723,0.0191747598,-9.52652841,0.366312854,-2.29603939
148832509000,0.0298274021,-0.167246516,0.0213052887,-9.46906757,0.387860669,-2.40138427
148833515000,0.0276968733,-0.167246516,0.0245010799,-9.43554874,0.361524451,-2.48518132
148834521000,0.0234358155,-0.167246516,0.0287621377,-9.39245311,0.323217224,-2.48278712
148835527000,0.0191747598,-0.167246516,0.0330231954,-9.36372269,0.325611426,-2.46123931
148836533000,0.0138484366,-0.167246516,0.0362189908,-9.33020387,0.328005627,-2.48039292
148837539000,0.00958737992,-0.167246516,0.0426105774,-9.29668505,0.296881006,-2.54264216
148838546000,0.0063915861,-0.168311781,0.0500674243,-9.30386765,0.270544788,-2.55221897
148839552000,0.00213052874,-0.169377045,0.0553937465,-9.29189664,0.258573779,-2.64798704
148840558000,-0.00213052874,-0.17044231,0.0607200687,-9.24880101,0.316034619,-2.66714065
148841564000,-0.00532632218,-0.171507574,0.0671116553,-9.22246479,0.366312854,-2.5905262
148842570000,-0.00745685053,-0.173638103,0.0735032461,-9.20809958,0.392649072,-2.56897838
148843577000,-0.0106526444,-0.174703368,0.0798948327,-9.16979236,0.445321509,-2.52348855
148844583000,-0.0138484366,-0.174703368,0.0852211549,-9.18415757,0.435744702,-2.5905262
148845589000,-0.0202400243,-0.174703368,0.0905474687,-9.20809958,0.392649072,-2.5905262
148846595000,-0.0245010799,-0.173638103,0.093743262,-9.19612858,0.368707056,-2.55461317
148847601000,-0.0287621377,-0.172572839,0.0969390554,-9.19852278,0.347159241,-2.5905262
148848607000,-0.0340884599,-0.17044231,0.100134849,-9.25358942,0.308852014,-2.5905262
148849614000,-0.0404800486,-0.169377045,0.102265378,-9.28950244,0.217872351,-2.54503636
148850620000,-0.0458063666,-0.168311781,0.105461171,-9.26316622,0.17238252,-2.49954653
148851626000,-0.0511326888,-0.165115988,0.108656964,-9.26316622,0.167594116,-2.50672914
148852632000,-0.0553937465,-0.164050723,0.110787493,-9.25598362,0.146046301,-2.54743057
148853638000,-0.0607200687,-0.16085493,0.112918022,-9.27274303,0.138863696,-2.5905262
148854645000,-0.0660463909,-0.156593872,0.113983286,-9.29668505,0.1436521,-2.5905262
148855651000,-0.0724379817,-0.153398079,0.113983286,-9.34935748,0.12928689,-2.62165082
148856657000,-0.0777643038,-0.15126755,0.115048551,-9.39245311,0.0909796631,-2.55700737
148857663000,-0.083090626,-0.148071757,0.116113815,-9.42118353,0.0837970581,-2.47799872
148858669000,-0.0862864193,-0.144875963,0.116113815,-9.47625017,0.0502782349,-2.51630594
148859675000,-0.0884169399,-0.144875963,0.11717908,-9.49779799,0.0263362183,-2.51870015
148860682000,-0.0916127332,-0.145941228,0.118244344,-9.48343278,0.0383072266,-2.50194073
148861688000,-0.093743262,-0.145941228,0.118244344,-9.49061538,0.01436521,-2.49715233
148862694000,-0.0948085265,-0.144875963,0.11717908,-9.53849941,0.01436521,-2.54264216
148863700000,-0.0969390554,-0.144875963,0.11717908,-9.55047042,0.0598550415,-2.55461317
148864706000,-0.0990695842,-0.143810699,0.118244344,-9.59596025,0.0239420166,-2.55461317
148865712000,-0.0990695842,-0.143810699,0.118244344,-9.64145009,-0.0239420166,-2.60489141
148866719000,-0.0980043198,-0.144875963,0.118244344,-9.6606037,-0.0502782349,-2.57616099
148867725000,-0.0969390554,-0.145941228,0.11717908,-9.6606037,-0.0383072266,-2.58573779
148868731000,-0.0958737909,-0.147006492,0.116113815,-9.65102689,0.00239420166,-2.6024972
148869737000,-0.0948085265,-0.149137021,0.116113815,-9.64863269,-0.01436521,-2.58334359
148870743000,-0.0948085265,-0.150202285,0.116113815,-9.67496891,-0.0622492432,-2.63362183
148871750000,-0.093743262,-0.150202285,0.11717908,-9.72285294,-0.0981622681,-2.61446821
148872756000,-0.093743262,-0.150202285,0.116113815,-9.73961235,-0.10055647,-2.600103
148873762000,-0.093743262,-0.149137021,0.115048551,-9.78510219,-0.117315881,-2.62643922
148874768000,-0.093743262,-0.149137021,0.113983286,-9.8114384,-0.181959326,-2.61686241
148875774000,-0.093743262,-0.15126755,0.113983286,-9.79228479,-0.155623108,-2.61207401
148876780000,-0.093743262,-0.152332814,0.110787493,-9.77073698,-0.0742202515,-2.58573779
148877787000,-0.0905474687,-0.153398079,0.108656964,-9.75397756,-0.0191536133,-2.58094939
148878793000,-0.0884169399,-0.154463343,0.1075917,-9.77073698,0.00478840332,-2.54503636
148879799000,-0.0894822043,-0.154463343,0.1075917,-9.78510219,-0.00478840332,-2.51391174
148880805000,-0.0926779976,-0.155528608,0.1075917,-9.76594857,-0.00718260498,-2.54503636
148881811000,-0.0948085265,-0.155528608,0.1075917,-9.74918916,-0.0694318481,-2.6024972
148882818000,-0.0958737909,-0.156593872,0.1075917,-9.73003555,-0.0981622681,-2.58094939
148883824000,-0.0948085265,-0.157659137,0.1075917,-9.72285294,-0.0311246216,-2.57855519
148884830000,-0.0948085265,-0.158724401,0.1075917,-9.71806454,0.0526724365,-2.66714065
148885836000,-0.0980043198,-0.158724401,0.108656964,-9.74918916,0.0574608398,-2.71981309
148886842000,-0.103330642,-0.158724401,0.108656964,-9.74200656,0,-2.63122762
148887848000,-0.1075917,-0.159789665,0.108656964,-9.68933412,0.0167594116,-2.55461317
148888855000,-0.108656964,-0.16085493,0.108656964,-9.68215151,0.0407014282,-2.62404502
148889861000,-0.1075917,-0.164050723,0.110787493,-9.69412252,0.0550666382,-2.61925662
148890867000,-0.1075917,-0.166181252,0.112918022,-9.67018051,0.0646434448,-2.55940157
148891873000,-0.1075917,-0.166181252,0.11717908,-9.60553706,0.0694318481,-2.53785376
148892879000,-0.108656964,-0.165115988,0.119309609,-9.57441244,0.0861912598,-2.53785376
148893885000,-0.110787493,-0.165115988,0.120374873,-9.56722983,0.0454898315,-2.50194073
148894892000,-0.112918022,-0.164050723,0.121440137,-9.55286462,-0.0119710083,-2.41574948
148895898000,-0.115048551,-0.164050723,0.123570666,-9.56722983,-0.0239420166,-2.35350023
148896904000,-0.116113815,-0.164050723,0.12676646,-9.60553706,-0.0119710083,-2.38701906
148897910000,-0.118244344,-0.164050723,0.129962253,-9.63426748,-0.0335188232,-2.38701906
148898916000,-0.119309609,-0.164050723,0.133158046,-9.60074866,-0.0574608398,-2.37983645
148899923000,-0.118244344,-0.165115988,0.136353839,-9.5241342,-0.0383072266,-2.39659586
148900929000,-0.119309609,-0.165115988,0.138484368,-9.53610521,-0.0311246216,-2.39899006
148901935000,-0.119309609,-0.165115988,0.140614906,-9.57920084,-0.0526724365,-2.44208569
148902941000,-0.121440137,-0.162985459,0.140614906,-9.60314286,-0.0167594116,-2.43729729
148903947000,-0.124635931,-0.159789665,0.14168017,-9.62229647,0.01436521,-2.42532628
148904953000,-0.128896988,-0.158724401,0.142745434,-9.61990227,-0.0167594116,-2.4468741
148905960000,-0.129962253,-0.158724401,0.142745434,-9.59117185,-0.0311246216,-2.39659586
148906966000,-0.129962253,-0.158724401,0.142745434,-9.56722983,-0.0646434448,-2.35828864
148907972000,-0.131027517,-0.159789665,0.144875963,-9.55047042,-0.102950671,-2.42293208
148908978000,-0.132092782,-0.16085493,0.145941228,-9.49300958,-0.0814028564,-2.48039292
148909984000,-0.134223311,-0.161920194,0.149137021,-9.45230815,-0.0742202515,-2.51391174
148910990000,-0.136353839,-0.16085493,0.150202285,-9.48822118,-0.117315881,-2.60967981
148911997000,-0.136353839,-0.159789665,0.153398079,-9.53131681,-0.148440503,-2.75333191
148913003000,-0.139549633,-0.159789665,0.155528608,-9.56962404,-0.162805713,-2.84191737
148914009000,-0.139549633,-0.157659137,0.155528608,-9.62469067,-0.198718738,-2.84431157
148915015000,-0.138484368,-0.157659137,0.155528608,-9.6629979,-0.229843359,-2.85628258
148916021000,-0.138484368,-0.158724401,0.156593872,-9.6677863,-0.246602771,-2.8874072
148917028000,-0.136353839,-0.157659137,0.156593872,-9.6606037,-0.203507141,-2.97120426
148918034000,-0.134223311,-0.156593872,0.154463343,-9.64623849,-0.201112939,-3.0238767
148919040000,-0.135288575,-0.155528608,0.154463343,-9.64863269,-0.237025964,-3.03824191
148920046000,-0.135288575,-0.155528608,0.155528608,-9.6582095,-0.244208569,-3.05978972
148921052000,-0.133158046,-0.154463343,0.156593872,-9.68454572,-0.313640417,-3.0238767
148922058000,-0.132092782,-0.155528608,0.155528608,-9.74440076,-0.344765039,-3.05021292
148923065000,-0.132092782,-0.156593872,0.154463343,-9.7994674,-0.325611426,-3.07894333
148924071000,-0.132092782,-0.156593872,0.154463343,-9.86411084,-0.359130249,-3.09091434
148925077000,-0.132092782,-0.155528608,0.153398079,-9.85213983,-0.356736047,-3.16274039
148926083000,-0.131027517,-0.154463343,0.153398079,-9.87368765,-0.371101257,-3.19865342
148927089000,-0.131027517,-0.154463343,0.153398079,-9.93593689,-0.371101257,-3.22498964
148928096000,-0.132092782,-0.154463343,0.154463343,-9.9550905,-0.356736047,-3.29202728
148929102000,-0.131027517,-0.153398079,0.154463343,-10.0005803,-0.428562097,-3.29681569
148930108000,-0.129962253,-0.152332814,0.155528608,-10.0245224,-0.454898315,-3.27526787
148931114000,-0.128896988,-0.152332814,0.156593872,-10.0867716,-0.445321509,-3.29202728
148932120000,-0.12676646,-0.152332814,0.157659137,-10.1442324,-0.481234534,-3.27287367
148933126000,-0.125701195,-0.15126755,0.157659137,-10.2040875,-0.493205542,-3.26329686
148934133000,-0.124635931,-0.15126755,0.159789665,-10.2567599,-0.497993945,-3.27526787
148935139000,-0.122505402,-0.152332814,0.159789665,-10.2950671,-0.529118567,-3.26329686
148936145000,-0.120374873,-0.154463343,0.161920194,-10.3429512,-0.543483777,-3.24174905
148937151000,-0.120374873,-0.158724401,0.165115988,-10.3788642,-0.54827218,-3.22977804
148938157000,-0.120374873,-0.162985459,0.168311781,-10.4506902,-0.572214197,-3.24414325
148939163000,-0.118244344,-0.167246516,0.171507574,-10.5536409,-0.610521423,-3.24653745
148940170000,-0.115048551,-0.171507574,0.172572839,-10.6541974,-0.617704028,-3.26569106
148941176000,-0.110787493,-0.17683388,0.173638103,-10.6925046,-0.610521423,-3.26329686
148942182000,-0.1075917,-0.183225466,0.174703368,-10.697293,-0.60573302,-3.21062443
148943188000,-0.105461171,-0.189617053,0.175768615,-10.733206,-0.627280835,-3.1675288
148944194000,-0.103330642,-0.19600864,0.17683388,-10.8002437,-0.672770667,-3.12443317
148945201000,-0.102265378,-0.200269697,0.177899144,-10.8960118,-0.696712683,-3.10527955
148946207000,-0.102265378,-0.20559602,0.178964409,-10.958261,-0.730231506,-3.13400997
148947213000,-0.101200113,-0.213052871,0.178964409,-11.0396639,-0.761356128,-3.15555779
148948219000,-0.0969390554,-0.223705515,0.180029673,-11.1402203,-0.761356128,-3.12682737
148949225000,-0.093743262,-0.234358159,0.178964409,-11.2024696,-0.775721338,-3.08373174
148950231000,-0.0916127332,-0.243945539,0.17683388,-11.2958434,-0.770932935,-3.05978972
148951238000,-0.0884169399,-0.252467655,0.173638103,-11.3556985,-0.766144531,-3.01429989
148952244000,-0.0852211549,-0.26098977,0.171507574,-11.4035825,-0.799663354,-2.99275208
148953250000,-0.0809600971,-0.27057715,0.168311781,-11.4442839,-0.794874951,-3.00951149
148954256000,-0.0777643038,-0.280164547,0.165115988,-11.5232926,-0.790086548,-2.99514628
148955262000,-0.0745685105,-0.288686662,0.162985459,-11.6190607,-0.814028564,-2.96641586
148956269000,-0.0703074528,-0.298274042,0.157659137,-11.6837041,-0.814028564,-2.93050283
148957275000,-0.0660463909,-0.308926686,0.152332814,-11.7555302,-0.835576379,-2.86107098
148958281000,-0.0628505976,-0.319579331,0.145941228,-11.7986258,-0.842758984,-2.81079275
148959287000,-0.0596548043,-0.330231975,0.140614906,-11.8273562,-0.811634363,-2.78206233
148960293000,-0.0575242754,-0.341949884,0.137419104,-11.8345388,-0.799663354,-2.7389667
148961299000,-0.0543284821,-0.352602495,0.133158046,-11.8321446,-0.794874951,-2.72460149
148962306000,-0.0532632176,-0.361124611,0.128896988,-11.8776344,-0.802057556,-2.68390006
148963312000,-0.0521979532,-0.371777255,0.123570666,-11.9374895,-0.806845959,-2.63601603
148964318000,-0.0500674243,-0.383495164,0.119309609,-11.9710083,-0.811634363,-2.64319863
148965324000,-0.0479368955,-0.395213072,0.115048551,-12.0093155,-0.804451758,-2.63122762
148966330000,-0.0458063666,-0.405865717,0.110787493,-12.0595938,-0.773327136,-2.64798704
148967336000,-0.0426105774,-0.417583626,0.105461171,-12.073959,-0.758961926,-2.66953485
148968343000,-0.0404800486,-0.430366799,0.101200113,-12.0811416,-0.770932935,-2.62883342
148969349000,-0.0383495197,-0.441019443,0.0969390554,-12.08593,-0.74938512,-2.58334359
148970355000,-0.0351537264,-0.451672088,0.0916127332,-12.0667764,-0.703895288,-2.54264216
148971361000,-0.0308926666,-0.463389996,0.0862864193,-12.1074778,-0.725443103,-2.50433494
148972367000,-0.0255663444,-0.475107905,0.0809600971,-12.1433908,-0.754173523,-2.47560452
148973374000,-0.0213052887,-0.486825814,0.0766990394,-12.133814,-0.708683691,-2.4564509
148974380000,-0.0202400243,-0.498543723,0.0724379817,-12.1314198,-0.656011255,-2.43729729
148975386000,-0.0191747598,-0.511326896,0.0671116553,-12.1314198,-0.63446344,-2.43969149
148976392000,-0.0170442299,-0.524110069,0.0628505976,-12.1026894,-0.608127222,-2.4468741
148977398000,-0.0138484366,-0.535827978,0.0585895398,-12.0787474,-0.59136781,-2.46123931
148978404000,-0.0127831722,-0.547545887,0.0553937465,-12.0931126,-0.567425793,-2.50194073
148979411000,-0.0117179078,-0.559263829,0.0500674243,-12.0715648,-0.531512769,-2.51630594
148980417000,-0.0117179078,-0.572047002,0.0458063666,-12.0476228,-0.502782349,-2.51630594
148981423000,-0.0127831722,-0.583764911,0.0436758419,-12.050017,-0.481234534,-2.53785376
148982429000,-0.0138484366,-0.594417555,0.041545313,-12.0260749,-0.474051929,-2.54982477
148983435000,-0.0138484366,-0.6050702,0.0394147841,-11.9686141,-0.457292517,-2.56179578
148984442000,-0.0138484366,-0.618918637,0.0383495197,-11.9374895,-0.442927307,-2.58334359
148985448000,-0.0138484366,-0.630636546,0.0372842553,-11.9087591,-0.414196887,-2.60489141
148986454000,-0.0127831722,-0.64128919,0.0372842553,-11.836933,-0.368707056,-2.62404502
148987460000,-0.0138484366,-0.653007099,0.0351537264,-11.7698954,-0.339976636,-2.65756384
148988466000,-0.0138484366,-0.665790273,0.031957931,-11.7220113,-0.306457812,-2.69587107
148989472000,-0.0149137011,-0.678573446,0.031957931,-11.6956751,-0.292092603,-2.68150586
148990479000,-0.0159789655,-0.68922609,0.031957931,-11.6453969,-0.258573779,-2.70544788
148991485000,-0.0191747598,-0.700943932,0.0308926666,-11.5927244,-0.222660754,-2.7437551
148992491000,-0.0213052887,-0.711596577,0.0308926666,-11.5568114,-0.205901343,-2.7437551
148993497000,-0.0223705511,-0.723314485,0.0308926666,-11.4969564,-0.201112939,-2.76290872
148994503000,-0.0223705511,-0.735032394,0.0308926666,-11.4418897,-0.203507141,-2.78445653
148995509000,-0.0234358155,-0.745685039,0.031957931,-11.3700637,-0.208295544,-2.80839855
148996516000,-0.0234358155,-0.757402947,0.0308926666,-11.291055,-0.191536133,-2.83712897
148997522000,-0.0234358155,-0.769120856,0.0308926666,-11.2527478,-0.179565125,-2.8778304
148998528000,-0.0255663444,-0.779773501,0.0308926666,-11.2120464,-0.198718738,-2.89698401
148999534000,-0.0255663444,-0.789360881,0.031957931,-11.1474029,-0.220266553,-2.92810863
149000540000,-0.0255663444,-0.79894826,0.0330231954,-11.0971247,-0.248996973,-2.94247384
149001547000,-0.0255663444,-0.807470376,0.031957931,-11.0085392,-0.253785376,-2.90416661
149002553000,-0.0245010799,-0.814927227,0.0330231954,-10.9175596,-0.263362183,-2.92810863
149003559000,-0.0245010799,-0.821318814,0.0340884599,-10.8648871,-0.275333191,-2.97359846
149004565000,-0.0234358155,-0.8277104,0.0351537264,-10.8122147,-0.299275208,-2.99514628
149005571000,-0.0202400243,-0.835167251,0.0351537264,-10.7475713,-0.332794031,-3.00232888
149006577000,-0.0181094954,-0.841558838,0.0340884599,-10.6661684,-0.356736047,-2.99754048
149007584000,-0.0170442299,-0.844754631,0.0340884599,-10.5967365,-0.344765039,-3.01669409
149008590000,-0.0149137011,-0.849015689,0.0362189908,-10.5656119,-0.373495459,-3.01669409
149009596000,-0.0127831722,-0.854342011,0.0372842553,-10.5440641,-0.421379492,-3.01429989
149010602000,-0.0106526444,-0.857537804,0.0383495197,-10.4818149,-0.411802686,-3.0286651
149011608000,-0.00958737992,-0.861798862,0.0394147841,-10.412383,-0.392649072,-3.0286651
149012615000,-0.0063915861,-0.86605992,0.0404800486,-10.3836526,-0.402225879,-3.0286651
149013621000,-0.00213052874,-0.868190449,0.041545313,-10.3261918,-0.390254871,-3.04781871
149014627000,0.00213052874,-0.870320978,0.0426105774,-10.2543657,-0.371101257,-3.04303031
149015633000,0.00532632218,-0.870320978,0.0447411022,-10.2519715,-0.361524451,-3.0286651
149016639000,0.00745685053,-0.869255713,0.0479368955,-10.2184527,-0.328005627,-3.0334535
149017645000,0.0106526444,-0.870320978,0.0500674243,-10.163386,-0.304063611,-3.04063611
149018652000,0.0138484366,-0.873516771,0.0511326888,-10.1131078,-0.282515796,-3.04303031
149019658000,0.0159789655,-0.8756473,0.0521979532,-10.0652238,-0.258573779,-3.0286651
149020664000,0.0181094954,-0.874582035,0.0543284821,-10.0221281,-0.253785376,-3.0286651
149021670000,0.0181094954,-0.872451507,0.0564590109,-9.99100353,-0.256179578,-3.01908829
149022676000,0.0191747598,-0.872451507,0.0596548043,-9.9550905,-0.246602771,-3.0262709
149023682000,0.0202400243,-0.872451507,0.0617853331,-9.91917748,-0.253785376,-3.0310593
149024689000,0.0213052887,-0.872451507,0.063915862,-9.89284126,-0.234631763,-3.00232888
149025695000,0.0223705511,-0.870320978,0.0649811264,-9.85932244,-0.220266553,-3.00232888
149026701000,0.0245010799,-0.868190449,0.0660463909,-9.82340941,-0.227449158,-2.98317527
149027707000,0.0276968733,-0.867125184,0.0671116553,-9.79707319,-0.222660754,-2.94486804
149028713000,0.0298274021,-0.868190449,0.0681769197,-9.8018616,-0.205901343,-2.93768544
149029720000,0.0308926666,-0.868190449,0.0692421842,-9.7994674,-0.215478149,-2.90895502
149030726000,0.0308926666,-0.867125184,0.0703074528,-9.8018616,-0.227449158,-2.86585939
149031732000,0.031957931,-0.864994655,0.0703074528,-9.8042558,-0.225054956,-2.83952317
149032738000,0.0330231954,-0.862864127,0.0692421842,-9.78510219,-0.210689746,-2.80839855
149033744000,0.0351537264,-0.860733598,0.0703074528,-9.73961235,-0.191536133,-2.76290872
149034750000,0.0362189908,-0.858603069,0.0713727172,-9.71327614,-0.179565125,-2.70544788
149035757000,0.0372842553,-0.857537804,0.0724379817,-9.71327614,-0.191536133,-2.65277544
149036763000,0.0372842553,-0.85647254,0.0724379817,-9.72045874,-0.215478149,-2.60489141
149037769000,0.0372842553,-0.85647254,0.0724379817,-9.71567034,-0.205901343,-2.56179578
149038775000,0.0383495197,-0.85647254,0.0713727172,-9.70609353,-0.186747729,-2.49715233
149039781000,0.0404800486,-0.855407276,0.0703074528,-9.73003555,-0.174776721,-2.46602771
149040788000,0.041545313,-0.855407276,0.0703074528,-9.73003555,-0.165199915,-2.47321031
149041794000,0.041545313,-0.855407276,0.0713727172,-9.69172832,-0.153228906,-2.43969149
149042800000,0.0394147841,-0.855407276,0.0724379817,-9.67736311,-0.146046301,-2.42532628
149043806000,0.0404800486,-0.855407276,0.0713727172,-9.67018051,-0.134075293,-2.41814368
149044812000,0.041545313,-0.855407276,0.0703074528,-9.6677863,-0.134075293,-2.38941326
149045818000,0.041545313,-0.854342011,0.0692421842,-9.6606037,-0.153228906,-2.37504805
149046825000,0.0404800486,-0.853276747,0.0681769197,-9.64623849,-0.131681091,-2.36068284
149047831000,0.0394147841,-0.853276747,0.0681769197,-9.62229647,-0.0837970581,-2.33674082
149048837000,0.0383495197,-0.851146218,0.0671116553,-9.61511387,-0.0574608398,-2.32476981
149049843000,0.0372842553,-0.849015689,0.0681769197,-9.61511387,-0.0478840332,-2.33434662
149050849000,0.0362189908,-0.84688516,0.0681769197,-9.60793126,-0.0766144531,-2.31758721
149051855000,0.0362189908,-0.845819896,0.0671116553,-9.60074866,-0.0861912598,-2.29364519
149052862000,0.0351537264,-0.845819896,0.0660463909,-9.60553706,-0.0694318481,-2.25294376
149053868000,0.0340884599,-0.844754631,0.0660463909,-9.60314286,-0.0574608398,-2.21463654
149054874000,0.031957931,-0.843689367,0.0649811264,-9.58877765,-0.0454898315,-2.18351191
149055880000,0.0308926666,-0.842624102,0.063915862,-9.60074866,-0.0239420166,-2.17393511
149056886000,0.0287621377,-0.841558838,0.0628505976,-9.60074866,-0.0263362183,-2.17632931
149057893000,0.0266316088,-0.840493573,0.0628505976,-9.63426748,-0.0359130249,-2.14520469
149058899000,0.0234358155,-0.840493573,0.0628505976,-9.64863269,-0.0191536133,-2.11647427
149059905000,0.0202400243,-0.839428309,0.0617853331,-9.64145009,0,-2.08295544
149060911000,0.0213052887,-0.83729778,0.0596548043,-9.63905588,0.0119710083,-2.06380183
149061917000,0.0213052887,-0.83729778,0.0585895398,-9.67257471,-0.0119710083,-2.03985981
149062923000,0.0191747598,-0.836232516,0.0585895398,-9.70848773,0.00239420166,-1.99915839
149063930000,0.0170442299,-0.833036722,0.0575242754,-9.70369933,0.0239420166,-1.94888015
149064936000,0.0149137011,-0.831971458,0.0575242754,-9.72045874,0.0119710083,-1.8770541
149065942000,0.0138484366,-0.831971458,0.0575242754,-9.76355437,0.0430956299,-1.85071788
149066948000,0.0127831722,-0.831971458,0.0575242754,-9.79467899,0.0574608398,-1.85071788
149067954000,0.0106526444,-0.833036722,0.0564590109,-9.8090442,0.0550666382,-1.83874688
149068961000,0.00852211497,-0.833036722,0.0553937465,-9.83777462,0.0885854614,-1.82438167
149069967000,0.00745685053,-0.831971458,0.0543284821,-9.88326445,0.102950671,-1.80043965
149070973000,0.0063915861,-0.831971458,0.0543284821,-9.92636008,0.11492168,-1.77410343
149071979000,0.00532632218,-0.831971458,0.0543284821,-9.98142672,0.126892688,-1.70945999
149072985000,0.00319579305,-0.830906194,0.0532632176,-10.0293108,0.160411511,-1.69270057
149073991000,0.00106526437,-0.829840929,0.0511326888,-10.0604354,0.198718738,-1.69270057
149074998000,-0.00106526437,-0.829840929,0.0490021599,-10.1250788,0.210689746,-1.59932671
149076004000,-0.00213052874,-0.830906194,0.0479368955,-10.1873281,0.213083948,-1.53947167
149077010000,-0.00532632218,-0.831971458,0.046871631,-10.2423947,0.186747729,-1.52510646
149078016000,-0.00958737992,-0.834101987,0.0447411022,-10.2974613,0.153228906,-1.48201083
149079022000,-0.0117179078,-0.834101987,0.041545313,-10.3549222,0.174776721,-1.45328041
149080028000,-0.0159789655,-0.836232516,0.0394147841,-10.3980178,0.208295544,-1.42454999
149081035000,-0.0202400243,-0.839428309,0.0372842553,-10.4291424,0.198718738,-1.38145436
149082041000,-0.0234358155,-0.843689367,0.0351537264,-10.4746323,0.217872351,-1.33117612
149083047000,-0.0266316088,-0.84688516,0.0340884599,-10.5560351,0.174776721,-1.25695587
149084053000,-0.0287621377,-0.849015689,0.0330231954,-10.6446206,0.131681091,-1.21625444
149085059000,-0.031957931,-0.853276747,0.0308926666,-10.685322,0.126892688,-1.16118781
149086066000,-0.0351537264,-0.859668333,0.0287621377,-10.7188408,0.124498486,-1.11569797
149087072000,-0.0383495197,-0.86605992,0.0255663444,-10.7475713,0.169988318,-1.12766898
149088078000,-0.0404800486,-0.871386242,0.0255663444,-10.7763017,0.189141931,-1.10612117
149089084000,-0.0426105774,-0.877777829,0.0255663444,-10.8146089,0.177170923,-1.05584293
149090090000,-0.0458063666,-0.88523468,0.0245010799,-10.8170031,0.232237561,-1.05823713
149091096000,-0.0490021599,-0.890561002,0.0245010799,-10.8170031,0.251391174,-1.04866033
149092103000,-0.0511326888,-0.896952589,0.0266316088,-10.8624929,0.215478149,-1.01753571
149093109000,-0.0532632176,-0.905474704,0.0287621377,-10.9055886,0.165199915,-0.943315454
149094115000,-0.0553937465,-0.91399682,0.0298274021,-10.9534726,0.105344873,-0.893037219
149095121000,-0.0575242754,-0.921453671,0.0298274021,-10.9391074,0.117315881,-0.933738647
149096127000,-0.0607200687,-0.929975786,0.0298274021,-10.8960118,0.150834705,-0.972045874
149097134000,-0.0628505976,-0.936367373,0.0287621377,-10.910377,0.160411511,-1.0151415
149098140000,-0.0649811264,-0.944889488,0.0287621377,-10.922348,0.148440503,-1.07020814
149099146000,-0.0681769197,-0.952346339,0.0298274021,-10.8768581,0.177170923,-1.16358201
149100152000,-0.0703074528,-0.957672661,0.031957931,-10.7667249,0.258573779,-1.27132108
149101158000,-0.0724379817,-0.960868455,0.0340884599,-10.6350438,0.430956299,-1.42694419
149102164000,-0.0724379817,-0.960868455,0.041545313,-10.4961801,0.572214197,-1.59693251
149103171000,-0.0703074528,-0.956607397,0.0543284821,-10.4985743,0.44771571,-1.54186587
149104177000,-0.0703074528,-0.95021581,0.0681769197,-10.6278612,0.316034619,-1.2952631
149105183000,-0.0713727172,-0.947020017,0.0777643038,-10.6925046,0.222660754,-0.995987891
149106189000,-0.0724379817,-0.95021581,0.0852211549,-10.685322,0.150834705,-0.871489404
149107195000,-0.075633775,-0.956607397,0.0905474687,-10.6278612,0.112527478,-0.797269153
149108201000,-0.0788295683,-0.964064248,0.0969390554,-10.6087076,-0.0502782349,-0.667982263
149109208000,-0.083090626,-0.970455835,0.101200113,-10.625467,-0.174776721,-0.572214197
149110214000,-0.0873516838,-0.977912686,0.100134849,-10.6087076,-0.263362183,-0.502782349
149111220000,-0.0926779976,-0.987500066,0.0969390554,-10.5488525,-0.325611426,-0.531512769
149112226000,-0.0980043198,-0.999217974,0.093743262,-10.4435076,-0.332794031,-0.60573302
149113232000,-0.101200113,-1.00880535,0.0905474687,-10.3429512,-0.311246216,-0.773327136
149114239000,-0.104395906,-1.01413168,0.0862864193,-10.2495773,-0.237025964,-0.957680664
149115245000,-0.106526435,-1.01626221,0.0841558904,-10.1322614,-0.210689746,-1.06541974
149116251000,-0.104395906,-1.01626221,0.0820253616,-10.0508586,-0.208295544,-1.11569797
149117257000,-0.102265378,-1.01306641,0.0809600971,-10.0125513,-0.184353528,-1.12766898
149118263000,-0.0990695842,-1.00987062,0.0798948327,-9.96706151,-0.196324536,-1.10851537
149119269000,-0.0958737909,-1.00560956,0.0788295683,-9.9526963,-0.237025964,-1.09654436
149120276000,-0.0916127332,-1.00028324,0.0766990394,-9.89762966,-0.277727393,-1.02232411
149121282000,-0.0862864193,-0.993891652,0.0745685105,-9.8018616,-0.313640417,-0.948103857
149122288000,-0.0809600971,-0.986434801,0.0735032461,-9.72045874,-0.373495459,-0.873883606
149123294000,-0.075633775,-0.980043215,0.0724379817,-9.6653921,-0.421379492,-0.756567725
149124300000,-0.0713727172,-0.974716892,0.0692421842,-9.56962404,-0.430956299,-0.66319386
149125307000,-0.0681769197,-0.96939057,0.0649811264,-9.49779799,-0.488417139,-0.5770026
149126313000,-0.0649811264,-0.962998984,0.0607200687,-9.45709656,-0.536301172,-0.507570752
149127319000,-0.0607200687,-0.956607397,0.0575242754,-9.33259807,-0.541089575,-0.454898315
149128325000,-0.0553937465,-0.948085281,0.0532632176,-9.20809958,-0.524330164,-0.407014282
149129331000,-0.0521979532,-0.941693695,0.0490021599,-9.10754312,-0.466869324,-0.368707056
149130337000,-0.0500674243,-0.934236844,0.0458063666,-8.98783303,-0.452504114,-0.361524451
149131344000,-0.0458063666,-0.924649464,0.041545313,-8.86333455,-0.454898315,-0.328005627
149132350000,-0.041545313,-0.915062084,0.0383495197,-8.73404766,-0.445321509,-0.313640417
149133356000,-0.0383495197,-0.905474704,0.0362189908,-8.60954917,-0.373495459,-0.313640417
149134362000,-0.0351537264,-0.895887324,0.0340884599,-8.47547388,-0.294486804,-0.253785376
149135368000,-0.031957931,-0.884169415,0.0308926666,-8.31985077,-0.253785376,-0.213083948
149136374000,-0.0298274021,-0.870320978,0.0287621377,-8.17380447,-0.237025964,-0.167594116
149137381000,-0.0287621377,-0.855407276,0.0287621377,-8.03494077,-0.196324536,-0.153228906
149138387000,-0.0266316088,-0.841558838,0.0287621377,-7.89128867,-0.117315881,-0.169988318
149139393000,-0.0245010799,-0.8277104,0.0298274021,-7.74045397,-0.0742202515,-0.167594116
149140399000,-0.0223705511,-0.811731434,0.0308926666,-7.59919607,-0.0502782349,-0.184353528
149141405000,-0.0223705511,-0.795752467,0.031957931,-7.52018741,-0.0359130249,-0.241814368
149142412000,-0.0223705511,-0.778708236,0.031957931,-7.45554397,-0.0598550415,-0.323217224
149143418000,-0.0213052887,-0.760598741,0.0330231954,-7.3478049,-0.0407014282,-0.395043274
149144424000,-0.0191747598,-0.742489245,0.0340884599,-7.24724843,0.00478840332,-0.464475122
149145430000,-0.0170442299,-0.723314485,0.0351537264,-7.14429775,0.0430956299,-0.543483777
149146436000,-0.0149137011,-0.700943932,0.0351537264,-7.04852969,0.0359130249,-0.636857642
149147442000,-0.0149137011,-0.676442917,0.0372842553,-7.00303986,-0.0263362183,-0.773327136
149148449000,-0.0127831722,-0.649811306,0.0394147841,-6.95036742,-0.0622492432,-0.859518396
149149455000,-0.0106526444,-0.622114431,0.0383495197,-6.90727179,-0.0718260498,-0.912190833
149150461000,-0.00745685053,-0.59548282,0.0383495197,-6.90487759,-0.0478840332,-0.950498059
149151467000,-0.00213052874,-0.568851209,0.0372842553,-6.9240312,-0.0478840332,-1.00077629
149152473000,0.00106526437,-0.5411543,0.0383495197,-6.94557902,-0.0766144531,-1.11090957
149153480000,0.00319579305,-0.51239216,0.0394147841,-6.96712683,-0.105344873,-1.18034142
149154486000,0.0063915861,-0.483630021,0.0383495197,-7.00782826,-0.138863696,-1.27610948
149155492000,0.00852211497,-0.453802616,0.0383495197,-7.07486591,-0.1436521,-1.2976573
149156498000,0.0117179078,-0.426105741,0.0383495197,-7.16584557,-0.110133276,-1.19710083
149157504000,0.0170442299,-0.397343601,0.0394147841,-7.22330641,-0.0885854614,-1.151611
149158510000,0.0223705511,-0.37071199,0.0394147841,-7.27837305,-0.0718260498,-1.17076461
149159517000,0.0255663444,-0.347276206,0.0404800486,-7.36935271,-0.0646434448,-1.22583125
149160523000,0.0276968733,-0.324905653,0.0426105774,-7.45554397,-0.0263362183,-1.25935007
149161529000,0.031957931,-0.301469835,0.0426105774,-7.57764825,-0.0215478149,-1.22343705
149162535000,0.0362189908,-0.281229811,0.0426105774,-7.68778153,-0.0311246216,-1.18752402
149163541000,0.0383495197,-0.263120299,0.0426105774,-7.80030901,-0.0383072266,-1.20428344
149164547000,0.041545313,-0.245010804,0.0426105774,-7.9319901,-0.0742202515,-1.24259066
149165554000,0.046871631,-0.227966573,0.0426105774,-8.04691178,-0.1436521,-1.31681091
149196745000,-0.0298274021,-0.234358159,0.0607200687,-10.5512467,0.703895288,0.984016882
149197751000,-0.0436758419,-0.235423424,0.0649811264,-10.5153337,0.694318481,0.998382092
149198758000,-0.0564590109,-0.236488688,0.0703074528,-10.4315366,0.7206547,0.998382092
149199764000,-0.0671116553,-0.236488688,0.0766990394,-10.4602671,0.672770667,1.03668932
149200770000,-0.0798948327,-0.235423424,0.0809600971,-10.4650555,0.617704028,1.07739075
149201776000,-0.0916127332,-0.233292895,0.0852211549,-10.3980178,0.667982263,1.19710083
149202782000,-0.1075917,-0.230097102,0.0894822043,-10.2208469,0.885854614,1.66636436
149203788000,-0.127831724,-0.22264025,0.0948085265,-10.0340992,0.960074866,1.89620771
149204795000,-0.148071757,-0.211987606,0.0990695842,-9.90002386,0.74938512,1.64481654
149205801000,-0.166181252,-0.19600864,0.105461171,-9.77313118,0.644040247,1.41736738
149206807000,-0.184290731,-0.17683388,0.112918022,-9.68454572,0.581791003,1.21864865
149207813000,-0.203465491,-0.155528608,0.120374873,-9.43315454,0.500388147,1.20907184
149208819000,-0.220509722,-0.135288575,0.128896988,-9.30865605,0.526724365,1.08457335
149209825000,-0.230097102,-0.115048551,0.138484368,-9.42836614,0.49081134,1.0127473
149210832000,-0.23222763,-0.0948085265,0.149137021,-9.53371101,0.385466467,1.0031705
149211838000,-0.23222763,-0.0798948327,0.16085493,-9.59835446,0.361524451,0.912190833
149212844000,-0.231162366,-0.0692421842,0.169377045,-9.63905588,0.339976636,0.67755907
149213850000,-0.227966573,-0.0617853331,0.17683388,-9.61990227,0.301669409,0.430956299
149214856000,-0.22264025,-0.0511326888,0.183225466,-9.55765303,0.268150586,0.232237561
149215863000,-0.216248664,-0.0394147841,0.189617053,-9.57920084,0.201112939,0.253785376
149216869000,-0.209857077,-0.0287621377,0.19600864,-9.63187328,0.246602771,0.220266553
149217875000,-0.20559602,-0.0191747598,0.200269697,-9.71806454,0.196324536,0
149218881000,-0.202400226,-0.0106526444,0.202400226,-9.78270798,0.0766144531,-0.155623108
149219887000,-0.200269697,-0.00106526437,0.202400226,-9.83538042,-0.0407014282,-0.0622492432
149220893000,-0.199204433,0.0106526444,0.202400226,-9.9574847,-0.292092603,0.0191536133
149221900000,-0.198139168,0.0191747598,0.200269697,-9.97663832,-0.313640417,-0.213083948
149222906000,-0.198139168,0.0266316088,0.194943375,-9.92396588,-0.220266553,-0.574608398
149223912000,-0.199204433,0.0362189908,0.189617053,-9.95987891,-0.232237561,-0.742202515
149224918000,-0.198139168,0.0479368955,0.184290731,-9.99339773,-0.292092603,-0.76375033
149225924000,-0.197073904,0.0617853331,0.177899144,-9.93354269,-0.380678064,-0.928950244
149226931000,-0.194943375,0.0745685105,0.171507574,-9.93114849,-0.387860669,-1.13245739
149227937000,-0.192812846,0.0852211549,0.165115988,-9.96227311,-0.347159241,-1.3000515
149228943000,-0.190682317,0.093743262,0.158724401,-9.99818613,-0.344765039,-1.18752402
149229949000,-0.190682317,0.0980043198,0.153398079,-10.067618,-0.378283862,-1.25935007
149230955000,-0.187486524,0.101200113,0.149137021,-10.0005803,-0.304063611,-1.30962831
149231961000,-0.182160202,0.104395906,0.143810699,-9.99100353,-0.253785376,-1.25456167
149232968000,-0.180029673,0.105461171,0.139549633,-9.97424412,-0.248996973,-1.4460978
149233974000,-0.177899144,0.104395906,0.137419104,-9.86411084,-0.155623108,-1.46525142
149234980000,-0.175768615,0.102265378,0.137419104,-9.87847605,-0.122104285,-1.39103116
149235986000,-0.172572839,0.100134849,0.137419104,-9.90720647,-0.0407014282,-1.5921441
149236992000,-0.17044231,0.0958737909,0.136353839,-9.82101521,0.0359130249,-1.91057292
149237998000,-0.167246516,0.0916127332,0.137419104,-9.83298622,-0.0478840332,-1.91296713
149239005000,-0.164050723,0.0894822043,0.138484368,-9.83059202,-0.0454898315,-1.78607444
149240011000,-0.158724401,0.0852211549,0.139549633,-9.81862101,-0.00957680664,-1.84114108
149241017000,-0.155528608,0.0788295683,0.14168017,-9.91199487,-0.0646434448,-1.90339032
149242023000,-0.153398079,0.0735032461,0.143810699,-9.92875428,-0.0814028564,-1.86747729
149243029000,-0.15126755,0.0692421842,0.144875963,-9.90960067,-0.0981622681,-1.88902511
149244036000,-0.148071757,0.063915862,0.145941228,-9.90481227,-0.0550666382,-1.99197578
149245042000,-0.145941228,0.0553937465,0.147006492,-9.93833109,-0.0167594116,-2.03746561
149246048000,-0.145941228,0.046871631,0.150202285,-9.96706151,-0.117315881,-1.92493813
149247054000,-0.143810699,0.0372842553,0.152332814,-9.92396588,-0.136469495,-1.90339032
149248060000,-0.138484368,0.0276968733,0.154463343,-9.97424412,-0.0814028564,-2.00394679
149249066000,-0.132092782,0.0149137011,0.155528608,-10.0173397,-0.0598550415,-1.96085116
149250073000,-0.129962253,0,0.156593872,-10.031705,-0.0478840332,-1.95366855
149251079000,-0.12676646,-0.0138484366,0.156593872,-10.0508586,-0.0311246216,-2.07098444
149252085000,-0.122505402,-0.0255663444,0.157659137,-10.0364934,-0.0359130249,-2.03985981
149253091000,-0.118244344,-0.0383495197,0.158724401,-10.0221281,-0.0263362183,-1.8698715
149254097000,-0.11717908,-0.0511326888,0.16085493,-9.95987891,0.0407014282,-1.97761057
149255104000,-0.115048551,-0.0607200687,0.161920194,-10.0149455,0.0335188232,-2.17154091
149256110000,-0.112918022,-0.0692421842,0.164050723,-10.055647,-0.0311246216,-2.11647427
149257116000,-0.111852757,-0.0777643038,0.165115988,-9.91199487,0.00239420166,-2.05901343
